timestamp,gx,gy,gz,ax,ay,az,madgwick_qw,madgwick_qx,madgwick_qy,madgwick_qz,kalman_qw,kalman_qx,kalman_qy,kalman_qz,madgwick_roll_deg,madgwick_pitch_deg,madgwick_yaw_deg,kalman_roll_deg,kalman_pitch_deg,kalman_yaw_deg,robot_accel_x,robot_accel_y,robot_accel_z,kalman_converged,kalman_P_change,convergence_counter
1786464996.892638,0.011985,-0.006491,0.037234,-0.102539,0.021973,-0.995117,1.000000,0.000129,0.000290,0.000186,0.999927,0.011766,0.002861,0.000196,0.014832,0.033246,0.021338,1.348419,0.327556,0.026341,-0.101516,0.023169,8.814762,0,0.087903733,0
1786464996.897149,0.012917,-0.006891,0.036435,-0.101807,0.020996,-0.994385,1.000000,0.000261,0.000579,0.000368,0.999602,0.027798,0.004725,0.000288,0.029972,0.066309,0.042221,3.186097,0.540272,0.048090,-0.157175,0.252448,8.812600,0,0.029543442,0
1786464996.899195,0.013849,-0.008222,0.036568,-0.102783,0.021729,-0.994629,0.999999,0.000400,0.000860,0.000551,0.998795,0.048715,0.005863,0.000335,0.045891,0.098553,0.063184,5.585004,0.669161,0.071044,-0.194701,0.567252,8.799621,0,0.014825378,0
1786464996.900997,0.013316,-0.008888,0.035369,-0.103027,0.021729,-0.995117,0.999999,0.000536,0.001138,0.000728,0.997201,0.074513,0.006127,0.000374,0.061549,0.130403,0.083463,8.547224,0.697002,0.095087,-0.217020,0.976670,8.767500,0,0.008954240,0
1786464996.902760,0.012651,-0.008622,0.035103,-0.102539,0.021729,-0.994385,0.999998,0.000670,0.001418,0.000903,0.994432,0.105247,0.005235,0.000411,0.076923,0.162382,0.103593,12.083495,0.591579,0.110011,-0.221284,1.479880,8.705794,0,0.006027101,0
1786464996.914070,0.011985,-0.007823,0.034704,-0.102539,0.021484,-0.993164,0.999998,0.000800,0.001701,0.001076,0.989780,0.142578,0.002633,0.000609,0.091889,0.194822,0.123498,16.394502,0.288677,0.112118,-0.201829,2.076335,8.598588,0,0.004817558,0
1786464996.934360,0.010121,-0.007823,0.034171,-0.103516,0.021729,-0.993408,0.999997,0.000921,0.001984,0.001247,0.981919,0.189280,-0.002719,0.000949,0.105852,0.227245,0.143100,21.821437,-0.326553,0.047757,-0.149196,2.792547,8.416954,0,0.004454257,0
1786464996.954357,0.008256,-0.006225,0.033771,-0.103027,0.020508,-0.993164,0.999996,0.001030,0.002276,0.001416,0.969163,0.246107,-0.012384,0.001270,0.118423,0.260651,0.162478,28.499310,-1.411359,-0.208265,-0.043201,3.668453,8.113086,0,0.004186241,0
1786464996.973984,0.006658,-0.005426,0.033372,-0.103516,0.021484,-0.991943,0.999995,0.001134,0.002571,0.001582,0.949227,0.313292,-0.028535,0.001561,0.130406,0.294443,0.181633,36.554488,-3.161483,-0.856003,0.142400,4.701864,7.625996,0,0.003978396,0
1786464996.993946,0.004395,-0.004494,0.032706,-0.103271,0.021240,-0.991943,0.999994,0.001226,0.002871,0.001745,0.919729,0.388826,-0.053944,0.001813,0.141062,0.328775,0.200411,45.945716,-5.775894,-2.224361,0.442562,5.855397,6.875747,0,0.003843325,0
1786464997.014031,0.002930,-0.002496,0.032174,-0.104004,0.021484,-0.991455,0.999992,0.001311,0.003181,0.001906,0.878975,0.468048,-0.091270,0.002009,0.150931,0.364239,0.218891,56.459260,-9.342106,-4.761379,0.888406,7.035717,5.794708,0,0.003749954,0
1786464997.033951,0.001998,-0.001298,0.031641,-0.104248,0.021729,-0.992188,0.999991,0.001392,0.003497,0.002064,0.827433,0.543299,-0.142044,0.002129,0.160348,0.400372,0.237073,67.656054,-13.731783,-8.931813,1.493693,8.089056,4.355859,0,0.003673928,0
1786464997.054008,0.000933,0.000699,0.031108,-0.104004,0.021973,-0.991699,0.999989,0.001469,0.003822,0.002219,0.768260,0.606201,-0.205651,0.002174,0.169265,0.437624,0.254959,79.025055,-18.579618,-15.041360,2.230375,8.834694,2.630990,0,0.003623607,0
1786464997.073948,0.000400,0.002164,0.030043,-0.104004,0.021973,-0.992188,0.999987,0.001542,0.004155,0.002369,0.706575,0.650312,-0.279001,0.002143,0.177886,0.475714,0.272242,90.093360,-23.394397,-23.083870,3.027316,9.148764,0.778159,0,0.003581083,0
1786464997.093950,0.000533,0.003496,0.030176,-0.104980,0.021729,-0.992432,0.999985,0.001616,0.004495,0.002520,0.647263,0.673183,-0.357591,0.002067,0.186452,0.514596,0.289609,100.554270,-27.755081,-32.752980,3.795844,9.022917,-1.006930,0,0.003551968,0
1786464997.113959,0.000933,0.005094,0.029377,-0.104492,0.021484,-0.992432,0.999983,0.001691,0.004843,0.002667,0.593718,0.675852,-0.436715,0.001959,0.195212,0.554401,0.306526,110.221799,-31.414053,-43.548545,4.469374,8.553218,-2.582262,0,0.003530560,0
1786464997.134043,0.002531,0.006026,0.028978,-0.103516,0.022461,-0.992432,0.999981,0.001777,0.005194,0.002811,0.547271,0.661686,-0.512507,0.001841,0.205266,0.594656,0.323227,119.034846,-34.291036,-54.933510,5.014800,7.875370,-3.886085,0,0.003517692,0
1786464997.154432,0.003729,0.007224,0.028445,-0.103516,0.021973,-0.993408,0.999978,0.001867,0.005552,0.002953,0.507831,0.634630,-0.582537,0.001726,0.215869,0.635628,0.339630,127.000359,-36.430808,-66.463329,5.428328,7.104764,-4.926800,0,0.003521085,0
1786464997.174136,0.005194,0.007890,0.028046,-0.103516,0.022461,-0.992676,0.999976,0.001967,0.005914,0.003093,0.474731,0.598765,-0.645064,0.001612,0.227476,0.676944,0.355815,134.118351,-37.907975,-77.722412,5.726618,6.322245,-5.742545,0,0.003494294,0
1786464997.194655,0.006525,0.008156,0.027513,-0.103516,0.022461,-0.993652,0.999973,0.002073,0.006276,0.003231,0.446818,0.557241,-0.699881,0.001515,0.239863,0.718408,0.371703,140.462100,-38.838476,-88.504552,5.927959,5.574948,-6.381633,0,0.003509044,0
1786464997.214220,0.008523,0.008955,0.026714,-0.103271,0.022705,-0.994141,0.999970,0.002190,0.006642,0.003364,0.423240,0.512987,-0.746800,0.001426,0.253505,0.760304,0.387144,146.046050,-39.317356,-98.580301,6.052633,4.882770,-6.886837,0,0.003479327,0
1786464997.234603,0.009854,0.009355,0.026714,-0.103027,0.022217,-0.994385,0.999967,0.002312,0.007011,0.003497,0.402996,0.467781,-0.786621,0.001360,0.267810,0.802450,0.402592,150.959253,-39.440995,-107.914376,6.116462,4.256472,-7.289503,0,0.003491960,0
1786464997.254077,0.011186,0.008822,0.025915,-0.102539,0.021973,-0.994873,0.999963,0.002442,0.007377,0.003626,0.385446,0.423376,-0.819867,0.001293,0.282866,0.844293,0.417589,155.234181,-39.281017,-116.416327,6.132785,3.695015,-7.618238,0,0.003462617,0
1786464997.274070,0.011852,0.008289,0.025382,-0.101807,0.021729,-0.995117,0.999960,0.002574,0.007740,0.003752,0.369942,0.380655,-0.847492,0.001237,0.298315,0.885827,0.432287,158.948434,-38.901760,-124.116603,6.112092,3.197883,-7.889966,0,0.003462660,0
1786464997.294274,0.012917,0.007890,0.024317,-0.103027,0.022461,-0.995605,0.999956,0.002713,0.008101,0.003873,0.355810,0.340404,-0.870358,0.001190,0.314538,0.927093,0.446383,162.172292,-38.328873,-131.038061,6.060183,2.759876,-8.120262,0,0.003471756,0
1786464997.314131,0.012118,0.007357,0.024317,-0.102295,0.021240,-0.995605,0.999952,0.002846,0.008460,0.003994,0.342905,0.302863,-0.889207,0.001136,0.330038,0.968113,0.460481,164.947540,-37.626730,-137.227995,5.983997,2.372565,-8.321423,0,0.003463730,0
1786464997.334129,0.011985,0.005626,0.023518,-0.101318,0.021729,-0.995605,0.999948,0.002980,0.008809,0.004111,0.330915,0.268391,-0.904688,0.001081,0.345707,1.008084,0.474127,167.323098,-36.821889,-142.717080,5.889781,2.034877,-8.498473,0,0.003463762,0
1786464997.354193,0.010920,0.004694,0.023385,-0.101318,0.021240,-0.995605,0.999944,0.003108,0.009155,0.004227,0.319543,0.236947,-0.917468,0.001024,0.360663,1.047544,0.487697,169.356558,-35.932125,-147.577965,5.779786,1.740137,-8.656997,0,0.003466586,0
1786464997.374120,0.009455,0.002697,0.023385,-0.101562,0.021729,-0.996826,0.999940,0.003230,0.009490,0.004343,0.308602,0.208607,-0.928034,0.000958,0.374948,1.085818,0.501270,171.085800,-34.972652,-151.849376,5.656457,1.484665,-8.803475,0,0.003462823,0
1786464997.394104,0.008390,0.001232,0.022719,-0.101318,0.021484,-0.996338,0.999936,0.003347,0.009817,0.004456,0.297991,0.183163,-0.936831,0.000891,0.388597,1.123258,0.514461,172.553347,-33.963233,-155.597973,5.522530,1.263215,-8.937932,0,0.003462481,0
1786464997.414165,0.006259,0.000167,0.022586,-0.101318,0.020996,-0.996094,0.999932,0.003452,0.010140,0.004568,0.287597,0.160415,-0.944222,0.000817,0.400916,1.160112,0.527575,173.795727,-32.913485,-158.881743,5.379786,1.071998,-9.064000,0,0.003465484,0
1786464997.434097,0.004528,-0.001564,0.021521,-0.101318,0.021240,-0.997314,0.999928,0.003549,0.010453,0.004675,0.277355,0.140277,-0.950471,0.000737,0.412329,1.195955,0.540078,174.839801,-31.832801,-161.736541,5.229413,0.908247,-9.184768,0,0.003462249,0
1786464997.454173,0.003196,-0.003695,0.021255,-0.101074,0.021729,-0.996582,0.999924,0.003641,0.010756,0.004781,0.267203,0.122548,-0.955816,0.000658,0.423154,1.230536,0.552429,175.714658,-30.727493,-164.209634,5.072964,0.768601,-9.297740,0,0.003465930,0
1786464997.474262,0.001332,-0.005293,0.020722,-0.101318,0.021484,-0.996582,0.999920,0.003723,0.011051,0.004884,0.257071,0.106941,-0.960457,0.000576,0.432839,1.264218,0.564471,176.447532,-29.599477,-166.354399,4.910646,0.649300,-9.406310,0,0.003469303,0
1786464997.494322,0.000134,-0.007423,0.020722,-0.101562,0.021240,-0.996094,0.999916,0.003798,0.011335,0.004987,0.246920,0.093257,-0.964538,0.000498,0.441767,1.296695,0.576506,177.060113,-28.451853,-168.209459,4.743012,0.547731,-9.510217,0,0.003470575,0
1786464997.514479,-0.000932,-0.009021,0.020456,-0.101318,0.021484,-0.996094,0.999912,0.003869,0.011611,0.005089,0.236780,0.081347,-0.968152,0.000425,0.450179,1.328234,0.588388,177.568568,-27.293429,-169.803820,4.571113,0.462084,-9.610705,0,0.003475681,0
1786464997.534302,-0.000665,-0.009687,0.020189,-0.101318,0.022461,-0.995850,0.999908,0.003943,0.011883,0.005189,0.226637,0.071122,-0.971379,0.000366,0.459024,1.359324,0.600124,177.987627,-26.126446,-171.157909,4.395644,0.390618,-9.706707,0,0.003465260,0
1786464997.554257,-0.000532,-0.010752,0.019923,-0.102539,0.021973,-0.995361,0.999904,0.004017,0.012150,0.005288,0.216347,0.062220,-0.974332,0.000318,0.467737,1.389854,0.611703,178.337740,-24.937362,-172.324627,4.215702,0.329631,-9.798507,0,0.003463084,0
1786464997.574167,0.000800,-0.011817,0.019257,-0.101562,0.021484,-0.994873,0.999900,0.004096,0.012412,0.005384,0.206116,0.054489,-0.977009,0.000287,0.477147,1.419790,0.622897,178.628857,-23.752460,-173.327349,4.032745,0.277796,-9.887517,0,0.003459490,0
1786464997.594163,0.001865,-0.012883,0.019257,-0.102539,0.021973,-0.993408,0.999896,0.004182,0.012669,0.005479,0.195735,0.047886,-0.979487,0.000269,0.487255,1.449093,0.634092,178.869684,-22.548550,-174.176924,3.846706,0.234980,-9.970908,0,0.003460456,0
1786464997.614155,0.002930,-0.012750,0.018991,-0.102051,0.022217,-0.994385,0.999892,0.004274,0.012926,0.005573,0.185381,0.042235,-0.981759,0.000262,0.498091,1.478445,0.645141,179.068328,-21.347350,-174.897771,3.657652,0.198992,-10.053680,0,0.003461013,0
1786464997.634110,0.005460,-0.013016,0.018991,-0.101562,0.021973,-0.994141,0.999887,0.004378,0.013181,0.005667,0.175039,0.037365,-0.983852,0.000275,0.510367,1.507644,0.656192,179.234680,-20.147927,-175.514175,3.467310,0.168211,-10.130847,0,0.003459845,0
1786464997.654480,0.006392,-0.011817,0.018591,-0.102539,0.022217,-0.993164,0.999883,0.004487,0.013443,0.005759,0.164547,0.033217,-0.985810,0.000292,0.523203,1.537524,0.667025,179.372767,-18.931823,-176.035694,3.274428,0.142772,-10.202895,0,0.003476690,0
1786464997.674147,0.007857,-0.011817,0.018725,-0.102783,0.021729,-0.993164,0.999878,0.004603,0.013705,0.005851,0.154020,0.029632,-0.987623,0.000314,0.536766,1.567429,0.677933,179.488317,-17.712858,-176.483153,3.078014,0.120729,-10.272734,0,0.003459362,0
1786464997.694170,0.009188,-0.010885,0.018192,-0.102539,0.022461,-0.992676,0.999874,0.004727,0.013972,0.005941,0.143485,0.026652,-0.989294,0.000342,0.551331,1.597809,0.688552,179.583405,-16.494013,-176.853268,2.880237,0.103136,-10.337953,0,0.003461518,0
1786464997.714154,0.010121,-0.010353,0.017526,-0.103271,0.021484,-0.993164,0.999869,0.004853,0.014241,0.006027,0.132854,0.024012,-0.990845,0.000369,0.566151,1.628561,0.698788,179.664514,-15.265497,-177.178634,2.680125,0.087027,-10.399866,0,0.003461461,0
1786464997.734133,0.010653,-0.009154,0.018325,-0.103027,0.021973,-0.992432,0.999863,0.004984,0.014516,0.006117,0.122222,0.021810,-0.992263,0.000395,0.581473,1.659950,0.709497,179.731372,-14.038215,-177.448546,2.478271,0.074453,-10.456671,0,0.003461207,0
1786464997.754112,0.010387,-0.007690,0.017659,-0.103271,0.021240,-0.992432,0.999858,0.005112,0.014799,0.006204,0.111549,0.019867,-0.993560,0.000411,0.596462,1.692221,0.719831,179.787547,-12.807642,-177.685130,2.274984,0.063067,-10.509767,0,0.003461023,0
1786464997.774101,0.009055,-0.006358,0.017659,-0.103760,0.021729,-0.992188,0.999853,0.005234,0.015088,0.006291,0.100811,0.018271,-0.994738,0.000412,0.610823,1.725221,0.730181,179.832519,-11.570633,-177.878491,2.069798,0.054715,-10.558373,0,0.003461346,0
1786464997.794143,0.009055,-0.004627,0.017659,-0.103271,0.021240,-0.991943,0.999847,0.005355,0.015386,0.006378,0.090108,0.016867,-0.995789,0.000412,0.625120,1.759226,0.740544,179.870777,-10.338903,-178.047468,1.863585,0.046904,-10.602776,0,0.003463781,0
1786464997.814162,0.007591,-0.003961,0.017526,-0.102783,0.020996,-0.992676,0.999841,0.005469,0.015688,0.006464,0.079444,0.015656,-0.996716,0.000399,0.638577,1.793613,0.750840,179.901808,-9.112816,-178.192340,1.657149,0.040686,-10.643549,0,0.003464688,0
1786464997.834152,0.006792,-0.002496,0.017393,-0.103516,0.020752,-0.992432,0.999835,0.005578,0.015996,0.006550,0.068697,0.014613,-0.997530,0.000381,0.651493,1.828857,0.761070,179.927805,-7.878086,-178.316459,1.449787,0.035501,-10.678711,0,0.003464089,0
1786464997.854116,0.005061,-0.000632,0.017526,-0.102539,0.020508,-0.992676,0.999829,0.005679,0.016314,0.006636,0.058054,0.013711,-0.998219,0.000351,0.663444,1.865163,0.771394,179.948622,-6.656114,-178.423131,1.242040,0.031301,-10.710123,0,0.003462601,0
1786464997.874141,0.002797,0.000034,0.017260,-0.103271,0.021240,-0.993164,0.999822,0.005770,0.016635,0.006722,0.047328,0.013036,-0.998794,0.000309,0.674257,1.901811,0.781581,179.964452,-5.425455,-178.502754,1.033895,0.029039,-10.737051,0,0.003464031,0
1786464997.894119,0.001199,0.001498,0.017393,-0.102051,0.021240,-0.993164,0.999816,0.005853,0.016963,0.006808,0.036730,0.012472,-0.999247,0.000261,0.684250,1.939274,0.791862,179.977288,-4.209907,-178.568931,0.825867,0.026743,-10.759192,0,0.003463108,0
1786464997.914088,0.000001,0.002164,0.017393,-0.102051,0.021240,-0.992920,0.999809,0.005931,0.017294,0.006894,0.026124,0.012003,-0.999587,0.000212,0.693566,1.977116,0.802155,179.988308,-2.994002,-178.623708,0.618615,0.024868,-10.776419,0,0.003462038,0
1786464997.934137,-0.001464,0.002697,0.017127,-0.102783,0.021240,-0.993408,0.999802,0.006000,0.017628,0.006980,0.015440,0.011614,-0.999813,0.000160,0.702001,2.015274,0.812302,179.997774,-1.769433,-178.668954,0.410219,0.023352,-10.789983,0,0.003464609,0
1786464997.954222,-0.002663,0.003229,0.016727,-0.102783,0.021484,-0.994385,0.999795,0.006064,0.017965,0.007063,0.004759,0.011315,-0.999925,0.000108,0.709806,2.053724,0.822233,-179.993815,-0.545430,-178.703331,0.200840,0.022290,-10.799675,0,0.003468112,0
1786464997.974307,-0.002663,0.004028,0.017260,-0.102051,0.021240,-0.994141,0.999788,0.006128,0.018305,0.007149,-0.005850,0.011034,-0.999922,0.000065,0.717607,2.092631,0.832480,-179.985130,0.670191,-178.735415,-0.007787,0.020676,-10.803676,0,0.003470739,0
1786464997.994148,-0.002929,0.003629,0.017127,-0.101562,0.021484,-0.994629,0.999781,0.006192,0.018644,0.007234,-0.016401,0.010824,-0.999807,0.000028,0.725344,2.131288,0.842658,-179.976419,1.879400,-178.759134,-0.215519,0.019550,-10.803952,0,0.003462337,0
1786464998.014154,-0.002529,0.003363,0.017127,-0.101807,0.021973,-0.994629,0.999773,0.006258,0.018980,0.007320,-0.026983,0.010690,-0.999579,0.000000,0.733415,2.169767,0.852844,-179.966861,3.092269,-178.773686,-0.422793,0.018546,-10.799361,0,0.003463053,0
1786464998.034134,-0.002130,0.003096,0.017260,-0.100830,0.021729,-0.994873,0.999766,0.006326,0.019316,0.007406,-0.037463,0.010539,-0.999242,-0.000020,0.741718,2.208091,0.863112,-179.956925,4.293786,-178.789832,-0.629334,0.016664,-10.790611,0,0.003462426,0
1786464998.054141,-0.000932,0.002564,0.016860,-0.100830,0.021973,-0.995117,0.999758,0.006401,0.019649,0.007490,-0.047945,0.010427,-0.998796,-0.000028,0.750761,2.246098,0.873155,-179.945666,5.495941,-178.801130,-0.834733,0.015049,-10.777614,0,0.003463157,0
1786464998.074490,0.000400,0.001632,0.016727,-0.101318,0.021729,-0.995850,0.999751,0.006481,0.019977,0.007573,-0.058491,0.010287,-0.998235,-0.000025,0.760478,2.283593,0.883118,-179.933481,6.706100,-178.815217,-1.040476,0.012708,-10.760781,0,0.003478274,0
1786464998.094155,0.002531,-0.000632,0.016860,-0.100830,0.021973,-0.995850,0.999743,0.006573,0.020294,0.007656,-0.068983,0.010179,-0.997566,-0.000008,0.771516,2.319765,0.893150,-179.919690,7.910757,-178.825179,-1.246455,0.010557,-10.738722,0,0.003460499,0
1786464998.114095,0.004395,-0.001032,0.016594,-0.100098,0.021729,-0.996582,0.999735,0.006675,0.020609,0.007738,-0.079386,0.010039,-0.996793,0.000019,0.783617,2.355709,0.903033,-179.905303,9.106003,-178.838458,-1.450383,0.007706,-10.713208,0,0.003458834,0
1786464998.134128,0.005194,-0.002763,0.016328,-0.101074,0.021973,-0.996582,0.999728,0.006780,0.020915,0.007818,-0.089898,0.009928,-0.995901,0.000046,0.796189,2.390658,0.912756,-179.890751,10.314941,-178.847886,-1.654087,0.005467,-10.682871,0,0.003461503,0
1786464998.154104,0.006392,-0.004361,0.016727,-0.100586,0.021729,-0.996582,0.999720,0.006892,0.021213,0.007901,-0.100363,0.009784,-0.994903,0.000074,0.809450,2.424688,0.922700,-179.876516,11.519446,-178.860622,-1.857919,0.002688,-10.647892,0,0.003461124,0
1786464998.174100,0.006925,-0.005026,0.016328,-0.100586,0.021973,-0.996338,0.999712,0.007006,0.021508,0.007981,-0.110822,0.009675,-0.993793,0.000100,0.823091,2.458318,0.932418,-179.862361,12.724662,-178.869047,-2.060542,0.000574,-10.608543,0,0.003461698,0
1786464998.194198,0.007857,-0.006225,0.016461,-0.100586,0.021729,-0.996338,0.999705,0.007126,0.021797,0.008061,-0.121281,0.009537,-0.992572,0.000126,0.837239,2.491267,0.942206,-179.848637,13.931300,-178.880512,-2.262518,-0.002042,-10.565136,0,0.003466460,0
1786464998.214563,0.007058,-0.008488,0.016195,-0.101318,0.021484,-0.996338,0.999697,0.007240,0.022075,0.008140,-0.131836,0.009383,-0.991227,0.000140,0.850850,2.522938,0.951824,-179.836668,15.150578,-178.893568,-2.464721,-0.004242,-10.517363,0,0.003481476,0
1786464998.234275,0.006658,-0.009287,0.015529,-0.100830,0.021240,-0.996094,0.999689,0.007353,0.022349,0.008216,-0.142309,0.009230,-0.989779,0.000146,0.864215,2.554155,0.961057,-179.825908,16.362079,-178.906458,-2.666392,-0.006194,-10.464637,0,0.003464896,0
1786464998.254192,0.005460,-0.010086,0.015795,-0.101074,0.021240,-0.995850,0.999682,0.007459,0.022619,0.008294,-0.152790,0.009094,-0.988217,0.000140,0.876913,2.584908,0.970439,-179.816399,17.576380,-178.917176,-2.866420,-0.007499,-10.407972,0,0.003461164,0
1786464998.274153,0.004262,-0.010619,0.015928,-0.101807,0.020508,-0.995361,0.999674,0.007558,0.022886,0.008372,-0.163329,0.008901,-0.986531,0.000124,0.888735,2.615401,0.979888,-179.809222,18.799472,-178.934599,-3.066093,-0.009301,-10.346723,0,0.003460222,0
1786464998.294278,0.002930,-0.011418,0.015928,-0.101807,0.020996,-0.995117,0.999667,0.007652,0.023150,0.008450,-0.173858,0.008795,-0.984731,0.000100,0.899933,2.645402,0.989340,-179.801533,20.023530,-178.941583,-3.265188,-0.009451,-10.281008,0,0.003466503,0
1786464998.314186,0.000800,-0.012217,0.016061,-0.101562,0.021240,-0.995117,0.999660,0.007735,0.023409,0.008529,-0.184333,0.008735,-0.982825,0.000062,0.910003,2.674920,0.998867,-179.794489,21.243599,-178.943011,-3.462707,-0.009756,-10.211254,0,0.003461978,0
1786464998.334097,-0.001065,-0.012483,0.016061,-0.101562,0.021240,-0.994141,0.999652,0.007810,0.023666,0.008608,-0.194785,0.008690,-0.980807,0.000017,0.919018,2.704282,1.008397,-179.788035,22.463413,-178.942644,-3.658229,-0.010228,-10.136588,0,0.003458740,0
1786464998.354149,-0.002396,-0.012217,0.015662,-0.101318,0.021240,-0.994141,0.999645,0.007878,0.023925,0.008685,-0.205181,0.008656,-0.978686,-0.000030,0.927285,2.733793,1.017704,-179.781472,23.679222,-178.940672,-3.851779,-0.010693,-10.058805,0,0.003462269,0
1786464998.374144,-0.003328,-0.011418,0.016061,-0.102539,0.020752,-0.993652,0.999637,0.007939,0.024188,0.008765,-0.215661,0.008576,-0.976431,-0.000077,0.934852,2.763802,1.027243,-179.775807,24.907668,-178.944063,-4.044346,-0.011660,-9.976754,0,0.003462485,0
1786464998.394138,-0.005193,-0.010619,0.015662,-0.102783,0.020996,-0.993652,0.999630,0.007992,0.024455,0.008842,-0.226120,0.008545,-0.974062,-0.000129,0.941387,2.794260,1.036566,-179.769379,26.136541,-178.941242,-4.236138,-0.011616,-9.890237,0,0.003462643,0
1786464998.414123,-0.005592,-0.010220,0.015529,-0.102539,0.020752,-0.993408,0.999622,0.008042,0.024723,0.008919,-0.236512,0.008495,-0.971591,-0.000174,0.947648,2.824958,1.045818,-179.762570,27.360589,-178.940256,-4.425676,-0.012386,-9.799331,0,0.003462370,0
1786464998.434115,-0.005992,-0.009287,0.015928,-0.102051,0.020752,-0.992432,0.999614,0.008090,0.024997,0.008999,-0.246814,0.008455,-0.969026,-0.000215,0.953719,2.856181,1.055314,-179.754891,28.577139,-178.937758,-4.612156,-0.012888,-9.704070,0,0.003462458,0
1786464998.454134,-0.005193,-0.008089,0.016061,-0.103027,0.021729,-0.992432,0.999606,0.008144,0.025276,0.009078,-0.257159,0.008518,-0.966332,-0.000243,0.960418,2.888047,1.064911,-179.741744,29.802077,-178.921183,-4.796877,-0.012733,-9.606460,0,0.003463629,0
1786464998.474088,-0.005193,-0.006358,0.016061,-0.102539,0.021484,-0.992432,0.999598,0.008197,0.025564,0.009158,-0.267390,0.008532,-0.963551,-0.000266,0.967091,2.920911,1.074527,-179.729253,31.016982,-178.910168,-4.979174,-0.014449,-9.504310,0,0.003461792,0
1786464998.494141,-0.003861,-0.005692,0.015795,-0.103271,0.021973,-0.992188,0.999589,0.008258,0.025855,0.009237,-0.277645,0.008583,-0.960645,-0.000276,0.974588,2.954142,1.084006,-179.713042,32.238298,-178.893323,-5.159183,-0.015509,-9.398816,0,0.003464644,0
1786464998.514104,-0.002663,-0.003562,0.015662,-0.103027,0.022217,-0.992432,0.999580,0.008325,0.026157,0.009315,-0.287801,0.008630,-0.957651,-0.000275,0.982841,2.988576,1.093438,-179.694973,33.451493,-178.875675,-5.336624,-0.017266,-9.289605,0,0.003462927,0
1786464998.534144,-0.001730,-0.001964,0.015662,-0.102783,0.021484,-0.991943,0.999570,0.008395,0.026467,0.009392,-0.297873,0.008573,-0.954567,-0.000268,0.991481,3.023963,1.102883,-179.679892,34.658473,-178.871045,-5.510626,-0.020110,-9.176610,0,0.003464915,0
1786464998.554178,0.000134,-0.000898,0.015529,-0.102539,0.022461,-0.992676,0.999561,0.008476,0.026782,0.009469,-0.307851,0.008611,-0.951396,-0.000249,1.001424,3.059900,1.112282,-179.658760,35.858128,-178.852507,-5.681418,-0.020907,-9.061728,0,0.003466181,0
1786464998.574185,0.001465,0.001498,0.015262,-0.103027,0.021973,-0.992188,0.999550,0.008563,0.027109,0.009545,-0.317803,0.008568,-0.948118,-0.000225,1.011996,3.097246,1.121550,-179.639640,37.058748,-178.843689,-5.849244,-0.023859,-8.942934,0,0.003465955,0
1786464998.594202,0.002531,0.002697,0.015662,-0.103027,0.021973,-0.992920,0.999540,0.008655,0.027443,0.009622,-0.327679,0.008511,-0.944751,-0.000200,1.023203,3.135270,1.131068,-179.620597,38.254373,-178.836130,-6.014387,-0.025810,-8.821649,0,0.003466246,0
1786464998.614153,0.003995,0.003496,0.015529,-0.102783,0.021973,-0.992920,0.999529,0.008755,0.027780,0.009698,-0.337463,0.008447,-0.941301,-0.000170,1.035270,3.173746,1.140525,-179.600736,39.443094,-178.828579,-6.176093,-0.027774,-8.696683,0,0.003463615,0
1786464998.634154,0.004262,0.005493,0.015396,-0.103516,0.021729,-0.992676,0.999517,0.008855,0.028128,0.009774,-0.347240,0.008356,-0.937739,-0.000145,1.047409,3.213387,1.149928,-179.582323,40.635423,-178.824214,-6.335033,-0.029796,-8.569021,0,0.003463760,0
1786464998.654170,0.004661,0.005360,0.014730,-0.102295,0.021729,-0.993408,0.999506,0.008957,0.028474,0.009847,-0.356834,0.008275,-0.934131,-0.000121,1.059837,3.252937,1.158961,-179.563419,41.809977,-178.818099,-6.490145,-0.031358,-8.438412,0,0.003464527,0
1786464998.674183,0.004528,0.006425,0.015129,-0.102783,0.021729,-0.993164,0.999494,0.009059,0.028826,0.009921,-0.366405,0.008200,-0.930419,-0.000106,1.072191,3.293096,1.168240,-179.544795,42.986188,-178.810900,-6.641743,-0.032677,-8.305787,0,0.003465008,0
1786464998.694286,0.002930,0.006692,0.014863,-0.102295,0.021240,-0.993896,0.999482,0.009152,0.029180,0.009995,-0.375860,0.008087,-0.926641,-0.000106,1.083558,3.333425,1.177372,-179.530250,44.152914,-178.809443,-6.789949,-0.034202,-8.170771,0,0.003469148,0
1786464998.714175,0.002264,0.007224,0.014464,-0.102539,0.020752,-0.994141,0.999470,0.009241,0.029536,0.010066,-0.385259,0.007950,-0.922774,-0.000111,1.094424,3.374090,1.186282,-179.517585,45.317661,-178.811391,-6.934881,-0.035310,-8.033403,0,0.003463196,0
1786464998.734167,0.000533,0.007357,0.014197,-0.101562,0.020996,-0.994629,0.999458,0.009322,0.029893,0.010136,-0.394496,0.007877,-0.918864,-0.000128,1.104405,3.414805,1.195054,-179.502636,46.467061,-178.804146,-7.075565,-0.035179,-7.893564,0,0.003463065,0
1786464998.754196,-0.000399,0.006558,0.014464,-0.102783,0.021240,-0.994141,0.999446,0.009398,0.030246,0.010208,-0.403792,0.007848,-0.914817,-0.000151,1.113853,3.455061,1.203976,-179.484695,47.628739,-178.789508,-7.213883,-0.035298,-7.751667,0,0.003464561,0
1786464998.774097,-0.002263,0.006558,0.013665,-0.101562,0.020996,-0.995605,0.999434,0.009465,0.030598,0.010276,-0.412889,0.007809,-0.910748,-0.000182,1.122224,3.495321,1.212448,-179.468187,48.770780,-178.776428,-7.348217,-0.036191,-7.607550,0,0.003460242,0
1786464998.794160,-0.004260,0.005626,0.013398,-0.101807,0.021240,-0.994873,0.999422,0.009523,0.030946,0.010343,-0.421959,0.007816,-0.906581,-0.000221,1.129479,3.535040,1.220766,-179.448804,49.914406,-178.755543,-7.478930,-0.036229,-7.460924,0,0.003463846,0
1786464998.814122,-0.005459,0.005094,0.013398,-0.101807,0.021729,-0.995117,0.999410,0.009575,0.031291,0.010411,-0.430959,0.007878,-0.902337,-0.000263,1.136146,3.574429,1.229090,-179.424274,51.054536,-178.724607,-7.606592,-0.036338,-7.312541,0,0.003462312,0
1786464998.834145,-0.006657,0.003895,0.012866,-0.101074,0.021973,-0.995117,0.999398,0.009621,0.031629,0.010475,-0.439835,0.007957,-0.898043,-0.000304,1.142192,3.613117,1.237106,-179.396926,52.184213,-178.689327,-7.730235,-0.037194,-7.161760,0,0.003463737,0
1786464998.854133,-0.007589,0.002697,0.012599,-0.101562,0.021240,-0.995850,0.999387,0.009662,0.031962,0.010539,-0.448685,0.007940,-0.893655,-0.000344,1.147504,3.651169,1.244950,-179.375598,53.316164,-178.668381,-7.850973,-0.039198,-7.010671,0,0.003463300,0
1786464998.874187,-0.007589,0.002031,0.012067,-0.101318,0.021729,-0.995850,0.999375,0.009703,0.032292,0.010600,-0.457449,0.007983,-0.889200,-0.000376,1.152900,3.688820,1.252494,-179.346222,54.442538,-178.634955,-7.968127,-0.039337,-6.856290,0,0.003465810,0
1786464998.894178,-0.007456,0.000433,0.011800,-0.101807,0.021729,-0.995850,0.999364,0.009745,0.032613,0.010659,-0.466193,0.008012,-0.884646,-0.000400,1.158326,3.725568,1.259870,-179.314636,55.572178,-178.601050,-8.082491,-0.040630,-6.700236,0,0.003465009,0
1786464998.914102,-0.006790,-0.000898,0.011667,-0.102295,0.022217,-0.996338,0.999352,0.009790,0.032928,0.010718,-0.474908,0.008078,-0.879998,-0.000415,1.164193,3.761537,1.267165,-179.275453,56.703697,-178.557192,-8.194044,-0.041496,-6.542040,0,0.003461519,0
1786464998.934145,-0.006391,-0.001298,0.011001,-0.101562,0.021729,-0.995605,0.999341,0.009837,0.033241,0.010773,-0.483494,0.008071,-0.875311,-0.000423,1.170194,3.797304,1.274074,-179.239932,57.824496,-178.523576,-8.301302,-0.043876,-6.380336,0,0.003463986,0
1786464998.954218,-0.005059,-0.003029,0.010602,-0.101807,0.022461,-0.995605,0.999330,0.009892,0.033546,0.010826,-0.492040,0.008134,-0.870535,-0.000420,1.177072,3.832050,1.280748,-179.192077,58.946091,-178.472681,-8.405495,-0.044543,-6.218600,0,0.003467146,0
1786464998.974134,-0.003595,-0.003695,0.010202,-0.101318,0.022461,-0.995361,0.999318,0.009954,0.033847,0.010877,-0.500469,0.008167,-0.865716,-0.000406,1.184796,3.866414,1.287192,-179.142231,60.058416,-178.423174,-8.505727,-0.046827,-6.054668,0,0.003462795,0
1786464998.994156,-0.001997,-0.004094,0.009537,-0.101807,0.022217,-0.995117,0.999307,0.010023,0.034146,0.010924,-0.508866,0.008150,-0.860807,-0.000382,1.193334,3.900576,1.293250,-179.092428,61.172688,-178.378624,-8.602898,-0.049266,-5.890205,0,0.003464058,0
1786464999.014168,-0.000399,-0.004494,0.009537,-0.102539,0.022217,-0.994873,0.999295,0.010100,0.034443,0.010971,-0.517247,0.008119,-0.855798,-0.000352,1.202753,3.934517,1.299305,-179.039214,62.291294,-178.332218,-8.697263,-0.051028,-5.723607,0,0.003464585,0
1786464999.034152,0.000666,-0.005026,0.009004,-0.102539,0.022461,-0.995117,0.999284,0.010182,0.034738,0.011015,-0.525546,0.008109,-0.850727,-0.000319,1.212818,3.968145,1.305058,-178.978657,63.405461,-178.276940,-8.788001,-0.052522,-5.555024,0,0.003463777,0
1786464999.054125,0.002397,-0.004893,0.008205,-0.102295,0.022217,-0.994385,0.999272,0.010273,0.035034,0.011054,-0.533745,0.008060,-0.845607,-0.000278,1.223815,4.001866,1.310357,-178.916970,64.512827,-178.224281,-8.874784,-0.054834,-5.384512,0,0.003462728,0
1786464999.074115,0.002797,-0.004627,0.008205,-0.103027,0.022461,-0.994385,0.999260,0.010366,0.035330,0.011094,-0.541916,0.008036,-0.840394,-0.000243,1.235064,4.035732,1.315665,-178.847556,65.623052,-178.161262,-8.958714,-0.056108,-5.214145,0,0.003462629,0
1786464999.094114,0.002930,-0.004627,0.007939,-0.103516,0.021729,-0.993408,0.999248,0.010458,0.035628,0.011132,-0.550046,0.007931,-0.835096,-0.000213,1.246220,4.069641,1.320815,-178.785932,66.734867,-178.112193,-9.039317,-0.058521,-5.040724,0,0.003462947,0
1786464999.114115,0.002930,-0.003695,0.007140,-0.103027,0.021240,-0.993408,0.999236,0.010550,0.035930,0.011166,-0.558043,0.007798,-0.829775,-0.000186,1.257282,4.104109,1.325518,-178.724922,67.835391,-178.065660,-9.115626,-0.059796,-4.866691,0,0.003463282,0
1786464999.134133,0.003330,-0.003295,0.006740,-0.103027,0.021240,-0.992920,0.999224,0.010643,0.036234,0.011198,-0.565954,0.007697,-0.824401,-0.000160,1.268569,4.138807,1.330002,-178.653390,68.931019,-178.005833,-9.188345,-0.060134,-4.692412,0,0.003464244,0
1786464999.154305,0.002131,-0.001964,0.006607,-0.103271,0.021973,-0.993408,0.999211,0.010732,0.036544,0.011230,-0.573787,0.007701,-0.818969,-0.000147,1.279310,4.174233,1.334442,-178.558175,70.022833,-177.912457,-9.257594,-0.059835,-4.518685,0,0.003471560,0
1786464999.174201,0.001598,-0.001431,0.005808,-0.102783,0.021240,-0.992676,0.999199,0.010816,0.036857,0.011258,-0.581489,0.007627,-0.813518,-0.000137,1.289601,4.210003,1.338428,-178.469919,71.103716,-177.832159,-9.322600,-0.062132,-4.342896,0,0.003465297,0
1786464999.194177,0.000134,-0.000366,0.005675,-0.103271,0.020752,-0.992432,0.999186,0.010893,0.037176,0.011285,-0.589132,0.007526,-0.808002,-0.000138,1.298935,4.246411,1.342348,-178.381121,72.183468,-177.752553,-9.384599,-0.063037,-4.168259,0,0.003463947,0
1786464999.214177,-0.001730,0.001099,0.004343,-0.103516,0.021729,-0.992676,0.999172,0.010961,0.037502,0.011306,-0.596689,0.007573,-0.802437,-0.000146,1.307329,4.283630,1.345541,-178.248678,73.258265,-177.616547,-9.442975,-0.062153,-3.993250,0,0.003464012,0
1786464999.234196,-0.003861,0.002564,0.004743,-0.103271,0.020752,-0.992188,0.999159,0.011017,0.037835,0.011330,-0.604131,0.007508,-0.796850,-0.000168,1.314342,4.321728,1.348975,-178.132619,74.324117,-177.504747,-9.497310,-0.064498,-3.817202,0,0.003464811,0
1786464999.254170,-0.004527,0.004694,0.003811,-0.103516,0.020996,-0.992188,0.999145,0.011069,0.038179,0.011349,-0.611482,0.007499,-0.791223,-0.000186,1.320966,4.361049,1.351910,-177.984076,75.384274,-177.356276,-9.548386,-0.064413,-3.642283,0,0.003463538,0
1786464999.274275,-0.005858,0.005893,0.003278,-0.103516,0.021484,-0.992676,0.999131,0.011116,0.038528,0.011366,-0.618734,0.007554,-0.785564,-0.000207,1.326893,4.401043,1.354568,-177.795163,76.437215,-177.161816,-9.595764,-0.064667,-3.467679,0,0.003468172,0
1786464999.294125,-0.007057,0.006958,0.002612,-0.103516,0.022217,-0.992432,0.999117,0.011157,0.038883,0.011381,-0.625883,0.007683,-0.779879,-0.000229,1.332235,4.441623,1.356874,-177.551339,77.482472,-176.906440,-9.639621,-0.065460,-3.292603,0,0.003460776,0
1786464999.314140,-0.007723,0.008689,0.002080,-0.103027,0.021729,-0.992432,0.999102,0.011195,0.039246,0.011392,-0.632895,0.007726,-0.774199,-0.000248,1.337091,4.483222,1.358897,-177.295588,78.515087,-176.646183,-9.679454,-0.068367,-3.118368,0,0.003462213,0
1786464999.334187,-0.008122,0.010420,0.001281,-0.103271,0.021729,-0.993164,0.999087,0.011229,0.039618,0.011400,-0.639817,0.007760,-0.768488,-0.000263,1.341657,4.525830,1.360490,-176.991667,79.541756,-176.338824,-9.716412,-0.069846,-2.946277,0,0.003464704,0
1786464999.354192,-0.007589,0.011219,0.001148,-0.103516,0.021729,-0.993408,0.999071,0.011266,0.039995,0.011407,-0.646658,0.007781,-0.762740,-0.000271,1.346494,4.568904,1.362022,-176.625725,80.563740,-175.971118,-9.750115,-0.071210,-2.773831,0,0.003464735,0
1786464999.374208,-0.006790,0.012151,0.000082,-0.103271,0.022217,-0.993408,0.999055,0.011308,0.040375,0.011409,-0.653387,0.007846,-0.756983,-0.000266,1.351827,4.612505,1.362969,-176.144779,81.575704,-175.485632,-9.780098,-0.072191,-2.601339,0,0.003465296,0
1786464999.394200,-0.005326,0.012684,-0.000317,-0.103027,0.022217,-0.993652,0.999039,0.011356,0.040759,0.011408,-0.660004,0.007881,-0.751221,-0.000251,1.357976,4.656417,1.363701,-175.549061,82.577867,-174.888747,-9.806772,-0.074304,-2.430061,0,0.003464634,0
1786464999.414202,-0.003728,0.012018,-0.001515,-0.103271,0.023193,-0.994385,0.999023,0.011414,0.041139,0.011401,-0.666550,0.007999,-0.745418,-0.000222,1.365140,4.699925,1.363756,-174.702230,83.575086,-174.034992,-9.830730,-0.075340,-2.260153,0,0.003464609,0
1786464999.434196,-0.002529,0.012684,-0.002448,-0.103516,0.021973,-0.994873,0.999007,0.011475,0.041523,0.011390,-0.673013,0.007935,-0.739588,-0.000186,1.372694,4.743890,1.363272,-173.690148,84.567068,-173.031377,-9.851575,-0.079798,-2.090412,0,0.003464226,0
1786464999.454224,0.000134,0.012018,-0.002980,-0.102783,0.023438,-0.995361,0.998990,0.011552,0.041903,0.011375,-0.679344,0.008028,-0.733776,-0.000136,1.382044,4.787407,1.362506,-172.080878,85.542249,-171.418809,-9.868444,-0.079230,-1.920901,0,0.003465392,0
1786464999.474120,0.001199,0.011352,-0.003779,-0.102539,0.022461,-0.995605,0.998974,0.011633,0.042280,0.011356,-0.685573,0.007972,-0.727960,-0.000084,1.391788,4.830597,1.361265,-169.785076,86.505909,-169.132029,-9.882646,-0.083346,-1.753011,0,0.003460651,0
1786464999.494198,0.003196,0.010819,-0.005244,-0.103027,0.022705,-0.995605,0.998957,0.011724,0.042655,0.011329,-0.691751,0.007943,-0.722092,-0.000020,1.402622,4.873499,1.359184,-165.687624,87.458890,-165.042283,-9.894613,-0.084401,-1.586121,0,0.003464814,0
1786464999.514211,0.003729,0.009355,-0.006309,-0.103271,0.022461,-0.996338,0.998940,0.011816,0.043023,0.011296,-0.697864,0.007883,-0.716187,0.000043,1.413650,4.915590,1.356473,-156.925253,88.382262,-156.289905,-9.903498,-0.086338,-1.419597,0,0.003465192,0
1786464999.534176,0.005460,0.008023,-0.007241,-0.102539,0.022705,-0.995605,0.998924,0.011918,0.043384,0.011259,-0.703857,0.007854,-0.710298,0.000111,1.425700,4.956912,1.353223,-129.273259,89.169999,-128.645867,-9.908541,-0.087297,-1.251943,0,0.003463420,0
1786464999.554150,0.004794,0.006292,-0.008839,-0.103027,0.021973,-0.996338,0.998908,0.012015,0.043737,0.011213,-0.709800,0.007750,-0.704361,0.000174,1.437134,4.997304,1.349023,-55.838697,89.221262,-55.224818,-9.911935,-0.089785,-1.087504,0,0.003462471,0
1786464999.574183,0.004927,0.004960,-0.010038,-0.102539,0.022217,-0.996338,0.998892,0.012113,0.044083,0.011162,-0.715637,0.007699,-0.698430,0.000235,1.448652,5.036933,1.344128,-25.055827,88.464663,-24.450937,-9.911584,-0.090079,-0.922421,0,0.003464286,0
1786464999.594130,0.004128,0.003762,-0.010837,-0.102539,0.021973,-0.996826,0.998876,0.012207,0.044423,0.011106,-0.721391,0.007634,-0.692486,0.000286,1.459629,5.075897,1.338759,-15.620914,87.571351,-15.025334,-9.908975,-0.091446,-0.759431,0,0.003461967,0
1786464999.614291,0.002930,0.001765,-0.012434,-0.103027,0.022217,-0.996338,0.998861,0.012294,0.044753,0.011043,-0.727108,0.007623,-0.686481,0.000333,1.469858,5.113735,1.332451,-11.375565,86.645071,-10.784593,-9.904159,-0.092155,-0.596323,0,0.003469402,0
1786464999.634185,0.001332,0.000566,-0.013233,-0.103271,0.021484,-0.996094,0.998847,0.012373,0.045078,0.010976,-0.732756,0.007540,-0.680449,0.000368,1.478984,5.150933,1.325658,-8.887215,85.712481,-8.305676,-9.896388,-0.094313,-0.433382,0,0.003463553,0
1786464999.654187,-0.000133,-0.000632,-0.015231,-0.103516,0.021973,-0.995850,0.998832,0.012444,0.045396,0.010899,-0.738340,0.007548,-0.674386,0.000402,1.487240,5.187456,1.317711,-7.376153,84.776214,-6.796551,-9.885955,-0.094314,-0.271121,0,0.003463761,0
1786464999.674212,-0.002529,-0.001964,-0.016163,-0.103271,0.021729,-0.995605,0.998818,0.012503,0.045708,0.010818,-0.743833,0.007540,-0.668322,0.000425,1.494032,5.223240,1.309210,-6.309970,83.844560,-5.732632,-9.872383,-0.096146,-0.109468,0,0.003464933,0
1786464999.694245,-0.004127,-0.002763,-0.017095,-0.103271,0.021973,-0.995117,0.998804,0.012554,0.046015,0.010733,-0.749248,0.007572,-0.662246,0.000442,1.499890,5.258572,1.300168,-5.552558,82.915988,-4.973734,-9.856534,-0.097067,0.050910,0,0.003466117,0
1786464999.714306,-0.005193,-0.003562,-0.018293,-0.104248,0.021484,-0.994873,0.998791,0.012598,0.046319,0.010641,-0.754635,0.007548,-0.656101,0.000460,1.504930,5.293498,1.290418,-4.934160,81.983069,-4.358449,-9.839139,-0.099279,0.209922,0,0.003468231,0
1786464999.734206,-0.006657,-0.003562,-0.019758,-0.104248,0.022217,-0.994629,0.998777,0.012635,0.046622,0.010543,-0.759932,0.007624,-0.649958,0.000478,1.509166,5.328417,1.279840,-4.503817,81.055736,-3.922955,-9.818121,-0.099466,0.369097,0,0.003462968,0
1786464999.754183,-0.007589,-0.003295,-0.020291,-0.104492,0.021484,-0.993896,0.998763,0.012667,0.046928,0.010443,-0.765155,0.007602,-0.643801,0.000493,1.512679,5.363535,1.268951,-4.105245,80.132757,-3.527044,-9.794939,-0.102448,0.527168,0,0.003462242,0
1786464999.774199,-0.008255,-0.003428,-0.022288,-0.104248,0.022217,-0.993652,0.998750,0.012696,0.047232,0.010332,-0.770282,0.007679,-0.637657,0.000517,1.515822,5.398577,1.256926,-3.827713,79.217261,-3.244818,-9.768826,-0.102727,0.683727,0,0.003463390,0
1786464999.794199,-0.008122,-0.003562,-0.023487,-0.104004,0.022949,-0.993408,0.998736,0.012726,0.047536,0.010216,-0.775312,0.007814,-0.631530,0.000548,1.519093,5.433530,1.244227,-3.624514,78.309686,-3.032685,-9.740454,-0.104402,0.838420,0,0.003463570,0
1786464999.814204,-0.007989,-0.002097,-0.024419,-0.104492,0.021973,-0.993164,0.998722,0.012755,0.047847,0.010095,-0.780272,0.007796,-0.625392,0.000584,1.522174,5.469388,1.230998,-3.390860,77.406595,-2.802933,-9.710696,-0.108700,0.990909,0,0.003463893,0
1786464999.834182,-0.006924,-0.001431,-0.025617,-0.105713,0.021973,-0.992188,0.998708,0.012788,0.048162,0.009968,-0.785206,0.007778,-0.619185,0.000630,1.525725,5.505662,1.217089,-3.190850,76.499114,-2.607574,-9.679398,-0.109734,1.143159,0,0.003463013,0
1786464999.854157,-0.005592,0.000566,-0.026815,-0.104980,0.022461,-0.992188,0.998693,0.012828,0.048487,0.009835,-0.790007,0.007813,-0.613048,0.000686,1.530068,5.543075,1.202536,-3.040785,75.606983,-2.458751,-9.643656,-0.110383,1.294345,0,0.003462223,0
1786464999.874143,-0.004394,0.001632,-0.028014,-0.104980,0.022705,-0.992188,0.998678,0.012874,0.048817,0.009696,-0.794716,0.007854,-0.606930,0.000751,1.535052,5.581110,1.187317,-2.914128,74.722806,-2.333465,-9.606871,-0.112181,1.442514,0,0.003462070,0
1786464999.894132,-0.002929,0.002963,-0.029878,-0.104980,0.022705,-0.991943,0.998662,0.012927,0.049154,0.009547,-0.799335,0.007872,-0.600834,0.000830,1.540750,5.619940,1.171050,-2.798264,73.846904,-2.221925,-9.568148,-0.114506,1.588950,0,0.003462101,0
1786464999.914140,-0.000932,0.004960,-0.030544,-0.105713,0.022217,-0.991211,0.998645,0.012989,0.049501,0.009394,-0.803896,0.007811,-0.594718,0.000914,1.547422,5.659956,1.154424,-2.671076,72.973304,-2.106015,-9.528360,-0.116829,1.733779,0,0.003462935,0
1786464999.934141,0.000800,0.007224,-0.031609,-0.105469,0.022949,-0.992188,0.998628,0.013060,0.049860,0.009236,-0.808346,0.007833,-0.588655,0.001005,1.555144,5.701255,1.137239,-2.583889,72.111772,-2.023825,-9.485525,-0.116803,1.875882,0,0.003463291,0
1786464999.954152,0.001865,0.008289,-0.032541,-0.104736,0.022705,-0.992432,0.998610,0.013136,0.050224,0.009073,-0.812676,0.007807,-0.582662,0.001098,1.563395,5.743186,1.119539,-2.492491,71.265024,-1.941549,-9.440601,-0.119110,2.016228,0,0.003463937,0
1786464999.974200,0.003862,0.010287,-0.033740,-0.105469,0.022461,-0.991699,0.998592,0.013220,0.050598,0.008904,-0.816951,0.007743,-0.576654,0.001199,1.572634,5.786301,1.101178,-2.400105,70.420488,-1.862032,-9.395898,-0.120617,2.154335,0,0.003466015,0
1786464999.994230,0.003995,0.012151,-0.035204,-0.104736,0.022705,-0.991943,0.998573,0.013306,0.050982,0.008727,-0.821104,0.007720,-0.570725,0.001299,1.581922,5.830493,1.082018,-2.327342,69.591284,-1.798730,-9.347821,-0.121234,2.290447,0,0.003466820,0
1786465000.014259,0.003729,0.013349,-0.036003,-0.105225,0.021729,-0.991943,0.998553,0.013388,0.051372,0.008547,-0.825194,0.007587,-0.564797,0.001393,1.590809,5.875432,1.062403,-2.230311,68.766659,-1.719693,-9.299854,-0.123578,2.423714,0,0.003467421,0
1786465000.034261,0.003463,0.014947,-0.037069,-0.104248,0.021729,-0.992920,0.998533,0.013469,0.051770,0.008361,-0.829153,0.007491,-0.558969,0.001482,1.599504,5.921297,1.042212,-2.150169,67.959726,-1.654182,-9.248803,-0.123084,2.554558,0,0.003466684,0
1786465000.054215,0.003596,0.015347,-0.037868,-0.104004,0.021973,-0.992920,0.998513,0.013551,0.052170,0.008171,-0.833026,0.007447,-0.553181,0.001569,1.608257,5.967397,1.021578,-2.088166,67.161955,-1.602239,-9.197661,-0.122767,2.683034,0,0.003464073,0
1786465000.074160,0.002131,0.016412,-0.038933,-0.104248,0.021729,-0.992676,0.998492,0.013624,0.052575,0.007977,-0.836830,0.007395,-0.547411,0.001647,1.616037,6.014139,1.000348,-2.027329,66.370246,-1.551478,-9.145852,-0.123877,2.809397,0,0.003461757,0
1786465000.094305,0.000533,0.017477,-0.039599,-0.103760,0.021973,-0.993164,0.998471,0.013690,0.052985,0.007780,-0.840537,0.007394,-0.541700,0.001718,1.622899,6.061492,0.978765,-1.981815,65.590267,-1.511222,-9.092001,-0.124260,2.933309,0,0.003468524,0
1786465000.114271,-0.001065,0.017211,-0.040930,-0.104004,0.022217,-0.993652,0.998450,0.013748,0.053395,0.007576,-0.844183,0.007429,-0.536001,0.001782,1.628766,6.108711,0.956418,-1.946397,64.815044,-1.477599,-9.037864,-0.125364,3.054910,0,0.003465990,0
1786465000.134153,-0.002796,0.017078,-0.041729,-0.102783,0.021973,-0.994385,0.998429,0.013797,0.053803,0.007369,-0.847710,0.007433,-0.530405,0.001839,1.633570,6.155871,0.933615,-1.906356,64.057261,-1.441205,-8.980979,-0.127399,3.174717,0,0.003460458,0
1786465000.154163,-0.004793,0.017344,-0.042129,-0.103271,0.021729,-0.994385,0.998408,0.013835,0.054213,0.007161,-0.851186,0.007420,-0.524808,0.001887,1.637108,6.203209,0.910584,-1.863890,63.302425,-1.403120,-8.925538,-0.128862,3.291717,0,0.003461790,0
1786465000.174203,-0.005858,0.016013,-0.042928,-0.102539,0.021484,-0.995361,0.998387,0.013867,0.054616,0.006949,-0.854575,0.007390,-0.519272,0.001935,1.639932,6.249807,0.887072,-1.820401,62.558960,-1.365422,-8.867418,-0.129901,3.406857,0,0.003464056,0
1786465000.194160,-0.007989,0.015480,-0.043327,-0.102295,0.021729,-0.996094,0.998366,0.013889,0.055017,0.006735,-0.857890,0.007409,-0.513777,0.001972,1.641519,6.296100,0.863330,-1.788668,61.823631,-1.334487,-8.809224,-0.130098,3.519615,0,0.003462250,0
1786465000.214188,-0.008921,0.013882,-0.044526,-0.102295,0.022705,-0.996338,0.998346,0.013907,0.055409,0.006516,-0.861149,0.007543,-0.508293,0.002015,1.642610,6.341466,0.838890,-1.782772,61.092456,-1.320203,-8.750360,-0.130384,3.631024,0,0.003463889,0
1786465000.234186,-0.009454,0.013216,-0.045058,-0.102539,0.021973,-0.995850,0.998325,0.013921,0.055798,0.006294,-0.864359,0.007554,-0.502814,0.002057,1.643182,6.386496,0.814120,-1.753097,60.364974,-1.292347,-8.690742,-0.134157,3.741572,0,0.003463856,0
1786465000.254237,-0.007989,0.011352,-0.045458,-0.102295,0.021973,-0.995850,0.998305,0.013942,0.056179,0.006070,-0.867509,0.007553,-0.497359,0.002108,1.644524,6.430471,0.789092,-1.723626,59.643266,-1.266519,-8.629448,-0.134950,3.850600,0,0.003466101,0
1786465000.274226,-0.008255,0.010287,-0.046123,-0.100830,0.021729,-0.996338,0.998285,0.013961,0.056553,0.005842,-0.870554,0.007525,-0.492011,0.002161,1.645641,6.473850,0.763666,-1.691338,58.938259,-1.240147,-8.566110,-0.135993,3.957351,0,0.003465119,0
1786465000.294260,-0.006790,0.007890,-0.046257,-0.101562,0.022217,-0.996338,0.998265,0.013988,0.056916,0.005613,-0.873575,0.007552,-0.486625,0.002218,1.647590,6.515852,0.738131,-1.671037,58.230627,-1.221706,-8.504987,-0.135638,4.061605,0,0.003466344,0
1786465000.314156,-0.004926,0.007091,-0.047189,-0.101807,0.022705,-0.996338,0.998245,0.014024,0.057275,0.005379,-0.876548,0.007613,-0.481249,0.002286,1.650572,6.557401,0.712056,-1.659329,57.526664,-1.209752,-8.441984,-0.136238,4.165190,0,0.003461353,0
1786465000.334142,-0.003062,0.005227,-0.047854,-0.101807,0.022705,-0.997070,0.998226,0.014070,0.057625,0.005141,-0.879468,0.007640,-0.475891,0.002364,1.654537,6.597900,0.685569,-1.643070,56.827413,-1.197023,-8.377703,-0.138045,4.266866,0,0.003461419,0
1786465000.354151,-0.000932,0.003629,-0.047988,-0.101318,0.021973,-0.996338,0.998207,0.014125,0.057967,0.004902,-0.882325,0.007559,-0.470573,0.002448,1.659575,6.637515,0.658970,-1.608647,56.135764,-1.175718,-8.312158,-0.139918,4.368511,0,0.003462468,0
1786465000.374148,0.000134,0.002564,-0.048254,-0.101318,0.022461,-0.996582,0.998187,0.014185,0.058304,0.004661,-0.885130,0.007550,-0.465275,0.002532,1.665253,6.676512,0.632211,-1.588455,55.448873,-1.162602,-8.246650,-0.138840,4.467244,0,0.003462757,0
1786465000.394154,0.002930,0.000566,-0.048653,-0.101562,0.022217,-0.996094,0.998168,0.014260,0.058630,0.004417,-0.887897,0.007496,-0.459974,0.002624,1.672425,6.714387,0.605186,-1.561876,54.763740,-1.147687,-8.180549,-0.139548,4.565382,0,0.003463329,0
1786465000.414528,0.003196,-0.000499,-0.048653,-0.100586,0.022461,-0.996338,0.998149,0.014336,0.058952,0.004173,-0.890589,0.007484,-0.454740,0.002718,1.679803,6.751639,0.578156,-1.543812,54.089229,-1.137892,-8.112344,-0.139381,4.661566,0,0.003479491,0
1786465000.434233,0.004794,-0.002363,-0.049053,-0.101318,0.021973,-0.996094,0.998130,0.014419,0.059264,0.003926,-0.893250,0.007403,-0.449490,0.002802,1.687938,6.787859,0.550855,-1.513690,53.414868,-1.121023,-8.045673,-0.140176,4.756073,0,0.003463120,0
1786465000.454222,0.005061,-0.002763,-0.048920,-0.101807,0.021240,-0.995850,0.998112,0.014502,0.059575,0.003680,-0.895873,0.007260,-0.444241,0.002886,1.696080,6.823883,0.523611,-1.473875,52.742697,-1.099881,-7.977838,-0.140318,4.849550,0,0.003462876,0
1786465000.474337,0.005993,-0.003562,-0.049053,-0.101318,0.021729,-0.995117,0.998093,0.014591,0.059881,0.003433,-0.898436,0.007214,-0.439035,0.002972,1.704824,6.859434,0.496291,-1.451865,52.077878,-1.088413,-7.908109,-0.138010,4.942505,0,0.003468082,0
1786465000.494252,0.005194,-0.004361,-0.048920,-0.101318,0.021240,-0.994385,0.998074,0.014675,0.060184,0.003186,-0.900949,0.007130,-0.433855,0.003044,1.713024,6.894546,0.469028,-1.423128,51.418284,-1.072411,-7.838579,-0.138430,5.033563,0,0.003463505,0
1786465000.514196,0.003463,-0.004494,-0.049452,-0.101807,0.021240,-0.995117,0.998056,0.014750,0.060486,0.002938,-0.903420,0.007081,-0.428687,0.003111,1.720161,6.929599,0.441457,-1.400738,50.761950,-1.059208,-7.769108,-0.137837,5.121552,0,0.003461261,0
1786465000.534332,0.002131,-0.004627,-0.049319,-0.102295,0.021484,-0.994385,0.998037,0.014819,0.060787,0.002690,-0.905855,0.007087,-0.423516,0.003173,1.726545,6.964572,0.413964,-1.387297,50.106975,-1.049844,-7.698986,-0.137479,5.209759,0,0.003467721,0
1786465000.554225,0.000533,-0.004627,-0.048920,-0.101807,0.020996,-0.993408,0.998018,0.014879,0.061088,0.002445,-0.908228,0.007046,-0.418405,0.003218,1.731960,6.999556,0.386697,-1.365768,49.461428,-1.035137,-7.627080,-0.138586,5.297154,0,0.003462268,0
1786465000.574195,-0.000932,-0.004627,-0.049186,-0.102295,0.020996,-0.993652,0.998000,0.014932,0.061390,0.002199,-0.910560,0.007029,-0.413305,0.003262,1.736475,7.034551,0.359276,-1.348669,48.818866,-1.022559,-7.556186,-0.138420,5.381316,0,0.003461469,0
1786465000.594319,-0.003595,-0.004494,-0.049186,-0.102783,0.020996,-0.993408,0.997981,0.014971,0.061692,0.001954,-0.912855,0.007038,-0.408210,0.003298,1.739420,7.069631,0.331856,-1.335652,48.178617,-1.011216,-7.484704,-0.138813,5.464724,0,0.003467382,0
1786465000.614232,-0.004793,-0.003428,-0.048787,-0.102539,0.020752,-0.992920,0.997962,0.015004,0.061999,0.001712,-0.915090,0.007027,-0.403175,0.003324,1.741647,7.105325,0.304683,-1.319298,47.547415,-0.997480,-7.411974,-0.139455,5.547136,0,0.003462855,0
1786465000.634242,-0.006258,-0.001964,-0.048787,-0.102539,0.020996,-0.992676,0.997942,0.015030,0.062313,0.001470,-0.917271,0.007063,-0.398187,0.003350,1.743045,7.141853,0.277541,-1.310885,46.923562,-0.987420,-7.339655,-0.139357,5.627304,0,0.003463597,0
1786465000.654227,-0.007723,-0.001564,-0.048520,-0.102295,0.021240,-0.993896,0.997923,0.015049,0.062630,0.001230,-0.919394,0.007127,-0.393258,0.003369,1.743634,7.178599,0.250567,-1.306937,46.308526,-0.978897,-7.266945,-0.140022,5.704418,0,0.003463085,0
1786465000.674164,-0.008122,-0.001032,-0.048121,-0.102783,0.021973,-0.992676,0.997903,0.015066,0.062949,0.000992,-0.921482,0.007267,-0.388337,0.003387,1.744083,7.215625,0.223845,-1.314497,45.695901,-0.975028,-7.195182,-0.140493,5.782077,0,0.003460647,0
1786465000.694212,-0.008122,0.000566,-0.048254,-0.102051,0.021729,-0.992676,0.997882,0.015084,0.063276,0.000753,-0.923503,0.007341,-0.383506,0.003411,1.744475,7.253577,0.197073,-1.312910,45.095761,-0.968329,-7.121799,-0.143363,5.857266,0,0.003463555,0
1786465000.714168,-0.007589,0.002031,-0.048121,-0.103027,0.021240,-0.993408,0.997860,0.015102,0.063610,0.000515,-0.925492,0.007332,-0.378681,0.003436,1.745035,7.292394,0.170391,-1.299237,44.497747,-0.956954,-7.050827,-0.145149,5.929483,0,0.003461803,0
1786465000.734264,-0.006924,0.003363,-0.047588,-0.102295,0.021729,-0.991943,0.997838,0.015125,0.063951,0.000280,-0.927421,0.007388,-0.373930,0.003464,1.746080,7.331948,0.144053,-1.296054,43.910181,-0.950532,-6.977643,-0.144470,6.002939,0,0.003466462,0
1786465000.754279,-0.005992,0.004162,-0.047588,-0.102051,0.021729,-0.992920,0.997816,0.015153,0.064296,0.000045,-0.929297,0.007423,-0.369241,0.003497,1.747630,7.371962,0.117732,-1.290217,43.331491,-0.943737,-6.905395,-0.145446,6.072006,0,0.003466516,0
1786465000.774228,-0.004394,0.004827,-0.047455,-0.102295,0.022705,-0.992676,0.997793,0.015189,0.064644,-0.000190,-0.931134,0.007556,-0.364581,0.003534,1.750211,7.412327,0.091519,-1.299284,42.757339,-0.943517,-6.834013,-0.144961,6.140548,0,0.003463755,0
1786465000.794223,-0.001997,0.006425,-0.046922,-0.102295,0.021484,-0.993408,0.997769,0.015236,0.065001,-0.000424,-0.932923,0.007488,-0.359980,0.003576,1.753983,7.453647,0.065619,-1.279626,42.191735,-0.932947,-6.762416,-0.148372,6.206703,0,0.003463624,0
1786465000.814247,-0.000532,0.006425,-0.046922,-0.102051,0.021484,-0.993652,0.997745,0.015290,0.065357,-0.000657,-0.934667,0.007435,-0.355428,0.003625,1.758570,7.494969,0.039722,-1.263006,41.633259,-0.924606,-6.690755,-0.147096,6.271922,0,0.003464795,0
1786465000.834224,0.001199,0.006825,-0.046390,-0.102295,0.021729,-0.993652,0.997720,0.015353,0.065715,-0.000889,-0.936375,0.007418,-0.350904,0.003673,1.764186,7.536510,0.014147,-1.251921,41.079173,-0.918607,-6.619922,-0.145751,6.335814,0,0.003463607,0
1786465000.854179,0.002531,0.007624,-0.046257,-0.101562,0.021240,-0.993896,0.997695,0.015423,0.066077,-0.001120,-0.938027,0.007342,-0.346464,0.003725,1.770500,7.578522,-0.011341,-1.233121,40.536378,-0.910426,-6.548106,-0.145907,6.398198,0,0.003461817,0
1786465000.874227,0.004128,0.007624,-0.045724,-0.101562,0.021973,-0.994385,0.997669,0.015501,0.066440,-0.001349,-0.939642,0.007368,-0.342059,0.003778,1.777854,7.620504,-0.036502,-1.229103,39.998730,-0.908136,-6.477792,-0.143710,6.458514,0,0.003464416,0
1786465000.894198,0.004262,0.007757,-0.045324,-0.102051,0.021240,-0.994873,0.997643,0.015579,0.066802,-0.001576,-0.941227,0.007299,-0.337673,0.003827,1.785163,7.662588,-0.061444,-1.211555,39.464404,-0.900460,-6.408075,-0.145037,6.517523,0,0.003463128,0
1786465000.914172,0.004794,0.007091,-0.045058,-0.101562,0.021973,-0.995361,0.997618,0.015661,0.067162,-0.001802,-0.942769,0.007338,-0.333342,0.003874,1.792900,7.704261,-0.086224,-1.209483,38.937521,-0.898504,-6.337150,-0.143058,6.575649,0,0.003462245,0
1786465000.934236,0.004528,0.007224,-0.044659,-0.101074,0.020996,-0.994873,0.997592,0.015740,0.067522,-0.002026,-0.944269,0.007254,-0.329071,0.003920,1.800362,7.746038,-0.110784,-1.190621,38.418873,-0.890554,-6.266797,-0.144909,6.633132,0,0.003465432,0
1786465000.954178,0.003995,0.006292,-0.044526,-0.100342,0.021240,-0.995361,0.997566,0.015817,0.067877,-0.002249,-0.945725,0.007234,-0.324864,0.003961,1.807567,7.787270,-0.135272,-1.180561,37.908831,-0.885400,-6.196608,-0.143274,6.688301,0,0.003462631,0
1786465000.974227,0.002531,0.005094,-0.043993,-0.100098,0.020508,-0.995850,0.997540,0.015886,0.068227,-0.002469,-0.947147,0.007145,-0.320696,0.003996,1.813846,7.827832,-0.159485,-1.161148,37.404331,-0.876516,-6.127546,-0.143888,6.741916,0,0.003465069,0
1786465000.994224,0.001598,0.004694,-0.043860,-0.100830,0.021240,-0.996094,0.997515,0.015951,0.068574,-0.002688,-0.948548,0.007182,-0.316526,0.004027,1.819662,7.868147,-0.183614,-1.158886,36.900144,-0.873100,-6.059841,-0.141656,6.794528,0,0.003464734,0
1786465001.014226,-0.000266,0.002830,-0.043194,-0.100098,0.020752,-0.996094,0.997490,0.016007,0.068913,-0.002903,-0.949912,0.007166,-0.312409,0.004049,1.824385,7.907398,-0.207396,-1.149355,36.403215,-0.866325,-5.990039,-0.143041,6.846856,0,0.003464634,0
1786465001.034215,-0.002796,0.002164,-0.042928,-0.100342,0.020752,-0.996338,0.997466,0.016050,0.069248,-0.003116,-0.951249,0.007178,-0.308312,0.004063,1.827643,7.946268,-0.231036,-1.143325,35.909397,-0.859960,-5.921929,-0.143060,6.897462,0,0.003464060,0
1786465001.054248,-0.004260,0.000566,-0.042262,-0.099854,0.020508,-0.996338,0.997442,0.016085,0.069575,-0.003326,-0.952554,0.007172,-0.304258,0.004072,1.830060,7.984220,-0.254323,-1.135021,35.421438,-0.852325,-5.852941,-0.143582,6.947518,0,0.003465471,0
1786465001.074189,-0.005725,-0.000898,-0.042129,-0.100342,0.020264,-0.996338,0.997418,0.016113,0.069895,-0.003534,-0.953839,0.007155,-0.300206,0.004078,1.831562,8.021346,-0.277566,-1.125147,34.934436,-0.843922,-5.785324,-0.143782,6.996389,0,0.003462607,0
1786465001.094254,-0.007456,-0.002230,-0.041463,-0.100342,0.020508,-0.996338,0.997395,0.016132,0.070208,-0.003738,-0.955098,0.007191,-0.296176,0.004079,1.832125,8.057693,-0.300443,-1.122368,34.450583,-0.837334,-5.716968,-0.143294,7.044570,0,0.003465775,0
1786465001.114255,-0.008122,-0.004094,-0.040930,-0.100586,0.021484,-0.996582,0.997372,0.016149,0.070511,-0.003940,-0.956335,0.007343,-0.292152,0.004077,1.832449,8.092937,-0.323027,-1.134965,33.968088,-0.835124,-5.648805,-0.142836,7.091672,0,0.003465386,0
1786465001.134185,-0.008788,-0.005426,-0.040531,-0.099609,0.021484,-0.995361,0.997350,0.016163,0.070808,-0.004139,-0.957535,0.007463,-0.288193,0.004073,1.832419,8.127408,-0.345400,-1.143368,33.493892,-0.831520,-5.579297,-0.145533,7.139423,0,0.003462072,0
1786465001.154278,-0.008522,-0.006491,-0.039732,-0.100098,0.020508,-0.996094,0.997329,0.016178,0.071100,-0.004335,-0.958716,0.007431,-0.284241,0.004071,1.832410,8.161294,-0.367352,-1.131922,33.021335,-0.822091,-5.512090,-0.148474,7.183861,0,0.003466539,0
1786465001.174205,-0.008255,-0.007290,-0.039199,-0.100586,0.021729,-0.995605,0.997307,0.016194,0.071387,-0.004528,-0.959876,0.007563,-0.280293,0.004066,1.832727,8.194680,-0.388988,-1.141866,32.549737,-0.818799,-5.444805,-0.146304,7.228820,0,0.003462825,0
1786465001.194259,-0.007057,-0.007956,-0.038533,-0.100586,0.021484,-0.995117,0.997285,0.016217,0.071672,-0.004718,-0.961012,0.007625,-0.276373,0.004066,1.833718,8.227685,-0.410256,-1.143045,32.082008,-0.813442,-5.376809,-0.148565,7.273077,0,0.003465442,0
1786465001.214272,-0.005592,-0.008622,-0.038001,-0.100098,0.021240,-0.994873,0.997264,0.016247,0.071952,-0.004907,-0.962116,0.007637,-0.272503,0.004068,1.835542,8.260307,-0.431229,-1.138000,31.620910,-0.806774,-5.308536,-0.149476,7.316198,0,0.003465701,0
1786465001.234235,-0.004260,-0.009154,-0.037202,-0.100586,0.021729,-0.994629,0.997242,0.016284,0.072231,-0.005091,-0.963201,0.007702,-0.268642,0.004070,1.838224,8.292600,-0.451741,-1.139993,31.161358,-0.802079,-5.241889,-0.148718,7.358171,0,0.003463690,0
1786465001.254297,-0.001730,-0.009287,-0.036270,-0.101074,0.020996,-0.994873,0.997220,0.016333,0.072508,-0.005272,-0.964265,0.007648,-0.264797,0.004075,1.842289,8.324830,-0.471733,-1.126787,30.704255,-0.793642,-5.175193,-0.150005,7.398937,0,0.003466449,0
1786465001.274260,-0.000399,-0.009154,-0.035870,-0.101562,0.021729,-0.994385,0.997198,0.016389,0.072786,-0.005451,-0.965309,0.007699,-0.260967,0.004082,1.847224,8.357111,-0.491475,-1.127290,30.249312,-0.789275,-5.108584,-0.147795,7.439673,0,0.003464286,0
1786465001.294215,0.001332,-0.008355,-0.035471,-0.101318,0.021484,-0.994141,0.997175,0.016454,0.073068,-0.005629,-0.966321,0.007702,-0.257191,0.004093,1.853143,8.389851,-0.510974,-1.121882,29.801436,-0.783939,-5.041349,-0.148505,7.479346,0,0.003462331,0
1786465001.314225,0.002397,-0.007556,-0.034672,-0.101318,0.021729,-0.993652,0.997152,0.016524,0.073353,-0.005804,-0.967307,0.007734,-0.253457,0.004104,1.859762,8.423029,-0.529987,-1.120407,29.358800,-0.779684,-4.975103,-0.147912,7.518140,0,0.003463198,0
1786465001.334265,0.002664,-0.007556,-0.034139,-0.101562,0.021240,-0.993408,0.997129,0.016596,0.073639,-0.005975,-0.968272,0.007702,-0.249748,0.004114,1.866489,8.456216,-0.548701,-1.110888,28.919732,-0.773332,-4.909441,-0.148772,7.555787,0,0.003465113,0
1786465001.354263,0.003463,-0.006491,-0.033074,-0.101562,0.020752,-0.992920,0.997105,0.016671,0.073930,-0.006142,-0.969210,0.007622,-0.246084,0.004119,1.873683,8.490011,-0.566786,-1.095350,28.486527,-0.765001,-4.843988,-0.148258,7.592798,0,0.003464785,0
1786465001.374247,0.003862,-0.005293,-0.032275,-0.101807,0.020996,-0.993164,0.997081,0.016749,0.074227,-0.006305,-0.970123,0.007600,-0.242459,0.004120,1.881195,8.524473,-0.584379,-1.087192,28.058207,-0.758353,-4.779399,-0.146177,7.628098,0,0.003463949,0
1786465001.394640,0.003063,-0.004227,-0.031476,-0.101562,0.020508,-0.993408,0.997056,0.016823,0.074529,-0.006463,-0.971010,0.007537,-0.238884,0.004122,1.888247,8.559546,-0.601496,-1.074055,27.636219,-0.750638,-4.714751,-0.146168,7.662500,0,0.003480731,0
1786465001.414590,0.001865,-0.003428,-0.031077,-0.101807,0.020996,-0.992432,0.997031,0.016891,0.074835,-0.006619,-0.971874,0.007570,-0.235342,0.004115,1.894699,8.595057,-0.618354,-1.072931,27.218358,-0.744940,-4.651275,-0.144406,7.697157,0,0.003474517,0
1786465001.434712,0.000400,-0.002097,-0.030278,-0.101562,0.020508,-0.992676,0.997005,0.016952,0.075148,-0.006770,-0.972712,0.007551,-0.231858,0.004104,1.900309,8.631332,-0.634730,-1.065199,26.807901,-0.737331,-4.587772,-0.145508,7.729726,0,0.003477145,0
1786465001.454282,-0.001065,-0.001298,-0.029212,-0.102051,0.020264,-0.992920,0.996979,0.017006,0.075465,-0.006916,-0.973527,0.007522,-0.228410,0.004078,1.905109,8.668057,-0.650480,-1.056112,26.401965,-0.727756,-4.525820,-0.145217,7.761324,0,0.003455600,0
1786465001.474720,-0.002929,0.000433,-0.028280,-0.102051,0.020508,-0.993164,0.996953,0.017050,0.075791,-0.007056,-0.974320,0.007555,-0.225005,0.004056,1.908944,8.705750,-0.665648,-1.054862,26.001402,-0.720541,-4.463991,-0.144493,7.792055,0,0.003476379,0
1786465001.494655,-0.004660,0.001632,-0.027082,-0.102295,0.020508,-0.992920,0.996926,0.017087,0.076122,-0.007189,-0.975091,0.007596,-0.221639,0.004018,1.911869,8.744111,-0.680099,-1.054403,25.605736,-0.711768,-4.402931,-0.144951,7.822461,0,0.003470575,0
1786465001.514939,-0.006125,0.002430,-0.026815,-0.101074,0.020752,-0.993164,0.996899,0.017117,0.076457,-0.007320,-0.975830,0.007676,-0.218359,0.003985,1.914030,8.782913,-0.694367,-1.059110,25.220431,-0.704870,-4.340872,-0.145441,7.851617,0,0.003481105,0
1786465001.535128,-0.007856,0.003496,-0.025484,-0.102051,0.019775,-0.993164,0.996872,0.017137,0.076798,-0.007443,-0.976557,0.007630,-0.215088,0.003940,1.915127,8.822337,-0.707868,-1.047971,24.836537,-0.693107,-4.282473,-0.147817,7.879808,0,0.003484972,0
1786465001.554672,-0.008788,0.004162,-0.024951,-0.101807,0.020752,-0.993652,0.996844,0.017154,0.077142,-0.007564,-0.977259,0.007732,-0.211875,0.003889,1.915860,8.862106,-0.721023,-1.055012,24.459649,-0.684740,-4.222780,-0.145602,7.907107,0,0.003460361,0
1786465001.574651,-0.009187,0.004428,-0.024285,-0.101807,0.020508,-0.993896,0.996816,0.017169,0.077488,-0.007681,-0.977941,0.007786,-0.208700,0.003843,1.916361,8.902026,-0.733791,-1.056448,24.087649,-0.675722,-4.164204,-0.147506,7.933723,0,0.003460425,0
1786465001.594751,-0.009587,0.004827,-0.023620,-0.100342,0.020996,-0.993408,0.996788,0.017183,0.077835,-0.007794,-0.978594,0.007899,-0.205613,0.003798,1.916779,8.942142,-0.746147,-1.065356,23.725960,-0.668524,-4.104766,-0.147739,7.960354,0,0.003465570,0
1786465001.614852,-0.009187,0.005227,-0.022554,-0.100342,0.021729,-0.995117,0.996759,0.017199,0.078183,-0.007903,-0.979229,0.008070,-0.202564,0.003750,1.917599,8.982450,-0.757861,-1.081307,23.369079,-0.662448,-4.048241,-0.148687,7.983691,0,0.003469543,0
1786465001.634610,-0.008388,0.004960,-0.021622,-0.101318,0.021240,-0.994385,0.996731,0.017220,0.078531,-0.008006,-0.979854,0.008131,-0.199513,0.003698,1.918834,9.022610,-0.769053,-1.083769,23.012194,-0.653052,-3.993156,-0.151844,8.008827,0,0.003457867,0
1786465001.654622,-0.007723,0.004960,-0.020957,-0.100586,0.021240,-0.995605,0.996702,0.017244,0.078878,-0.008107,-0.980458,0.008176,-0.196525,0.003650,1.920508,9.062758,-0.779853,-1.084631,22.662895,-0.643893,-3.936279,-0.152536,8.031665,0,0.003459919,0
1786465001.674688,-0.006657,0.004561,-0.020158,-0.101318,0.021729,-0.994873,0.996673,0.017273,0.079224,-0.008204,-0.981052,0.008271,-0.193533,0.003602,1.922886,9.102655,-0.790189,-1.091499,22.313399,-0.635987,-3.881838,-0.152359,8.055648,0,0.003463739,0
1786465001.694673,-0.004793,0.004028,-0.019492,-0.100342,0.021729,-0.995361,0.996645,0.017313,0.079566,-0.008299,-0.981625,0.008332,-0.190605,0.003557,1.926399,9.142233,-0.800142,-1.094520,21.971485,-0.627707,-3.825485,-0.153465,8.078087,0,0.003463182,0
1786465001.714617,-0.002929,0.004028,-0.018160,-0.100342,0.021240,-0.994873,0.996616,0.017361,0.079909,-0.008388,-0.982184,0.008311,-0.187707,0.003508,1.931016,9.181802,-0.809331,-1.087510,21.633498,-0.617106,-3.771279,-0.154396,8.100649,0,0.003461047,0
1786465001.734567,-0.000665,0.002164,-0.017628,-0.099854,0.021484,-0.995605,0.996587,0.017421,0.080242,-0.008475,-0.982727,0.008318,-0.184842,0.003464,1.937006,9.220286,-0.818236,-1.084180,21.299379,-0.607851,-3.716735,-0.152982,8.121585,0,0.003459680,0
1786465001.754671,0.000800,0.000966,-0.016829,-0.100342,0.021729,-0.995850,0.996559,0.017489,0.080568,-0.008559,-0.983261,0.008350,-0.181977,0.003422,1.943914,9.258066,-0.826693,-1.083985,20.965496,-0.599332,-3.663779,-0.152270,8.142381,0,0.003465183,0
1786465001.774666,0.001332,0.000300,-0.015763,-0.100098,0.020996,-0.996338,0.996531,0.017560,0.080892,-0.008637,-0.983781,0.008285,-0.179149,0.003374,1.951122,9.295466,-0.834557,-1.072092,20.636101,-0.588183,-3.610104,-0.153165,8.162551,0,0.003464705,0
1786465001.794564,0.002397,-0.000632,-0.014964,-0.099609,0.021240,-0.995605,0.996503,0.017636,0.081210,-0.008713,-0.984286,0.008273,-0.176357,0.003325,1.959055,9.332308,-0.841964,-1.066741,20.311022,-0.578215,-3.556734,-0.151123,8.183416,0,0.003460187,0
1786465001.814560,0.002397,-0.002363,-0.014565,-0.100830,0.020508,-0.996094,0.996476,0.017711,0.081521,-0.008786,-0.984787,0.008180,-0.173541,0.003278,1.966879,9.368179,-0.849190,-1.051706,19.983399,-0.566723,-3.505495,-0.151319,8.202526,0,0.003461001,0
1786465001.835408,0.001998,-0.003562,-0.013633,-0.100342,0.020752,-0.995850,0.996449,0.017784,0.081825,-0.008855,-0.985276,0.008158,-0.170744,0.003231,1.974603,9.403337,-0.855888,-1.045218,19.658112,-0.556871,-3.452102,-0.149033,8.222217,0,0.003497996,0
1786465001.854446,0.001598,-0.004227,-0.012834,-0.099609,0.019775,-0.995605,0.996422,0.017856,0.082126,-0.008920,-0.985746,0.008033,-0.168017,0.003171,1.982056,9.438122,-0.862151,-1.026430,19.341215,-0.543514,-3.398927,-0.149267,8.241375,0,0.003448587,0
1786465001.874432,0.000933,-0.004893,-0.011769,-0.100098,0.021240,-0.996338,0.996396,0.017925,0.082423,-0.008979,-0.986206,0.008138,-0.165293,0.003111,1.989410,9.472466,-0.867773,-1.035211,19.024646,-0.534890,-3.348115,-0.145165,8.258853,0,0.003451798,0
1786465001.894432,-0.000399,-0.006491,-0.011103,-0.100342,0.020508,-0.995361,0.996370,0.017988,0.082712,-0.009035,-0.986658,0.008140,-0.162574,0.003047,1.995950,9.505905,-0.873056,-1.031715,18.708869,-0.523841,-3.296869,-0.147832,8.277700,0,0.003454788,0
1786465001.914661,-0.002796,-0.006757,-0.010703,-0.099854,0.020752,-0.995361,0.996345,0.018039,0.083000,-0.009087,-0.987096,0.008198,-0.159892,0.002983,2.001197,9.539174,-0.878101,-1.034943,18.397592,-0.513843,-3.245156,-0.147764,8.295191,0,0.003466855,0
1786465001.935032,-0.004260,-0.007690,-0.009771,-0.100586,0.020508,-0.995361,0.996320,0.018083,0.083284,-0.009134,-0.987528,0.008226,-0.157204,0.002912,2.005629,9.571903,-0.882630,-1.034517,18.085675,-0.502597,-3.195179,-0.149059,8.312183,0,0.003482019,0
1786465001.954605,-0.005858,-0.007690,-0.009105,-0.101074,0.020996,-0.994385,0.996295,0.018119,0.083567,-0.009178,-0.987948,0.008326,-0.154537,0.002836,2.009255,9.604608,-0.886761,-1.042676,17.776323,-0.492053,-3.145007,-0.148994,8.329841,0,0.003459379,0
1786465001.974543,-0.007723,-0.007956,-0.008440,-0.100586,0.020264,-0.994141,0.996271,0.018145,0.083850,-0.009217,-0.988355,0.008328,-0.151913,0.002759,2.011780,9.637168,-0.890523,-1.039278,17.472187,-0.479581,-3.094050,-0.151686,8.346371,0,0.003457907,0
1786465001.994484,-0.008522,-0.008089,-0.007508,-0.101562,0.020996,-0.994141,0.996246,0.018169,0.084131,-0.009251,-0.988754,0.008434,-0.149287,0.002677,2.013998,9.669618,-0.893732,-1.048175,17.167763,-0.468499,-3.045377,-0.150776,8.362143,0,0.003456944,0
1786465002.014473,-0.009054,-0.007956,-0.006709,-0.100830,0.020996,-0.993652,0.996222,0.018190,0.084413,-0.009281,-0.989139,0.008523,-0.146712,0.002594,2.015997,9.702128,-0.896469,-1.055166,16.869476,-0.456941,-2.994910,-0.152567,8.378103,0,0.003458229,0
1786465002.034667,-0.009853,-0.007157,-0.005643,-0.101074,0.020264,-0.993408,0.996197,0.018207,0.084699,-0.009306,-0.989514,0.008509,-0.144164,0.002505,2.017528,9.735097,-0.898587,-1.049954,16.574540,-0.443043,-2.946463,-0.154826,8.393221,0,0.003467934,0
1786465002.054514,-0.008921,-0.006225,-0.004978,-0.100586,0.020996,-0.992920,0.996171,0.018229,0.084990,-0.009327,-0.989874,0.008595,-0.141669,0.002417,2.019760,9.768565,-0.900277,-1.056657,16.285759,-0.431046,-2.897815,-0.153250,8.408193,0,0.003460478,0
1786465002.074559,-0.009187,-0.005426,-0.004045,-0.101562,0.021240,-0.992676,0.996146,0.018251,0.085284,-0.009344,-0.990226,0.008697,-0.139180,0.002327,2.021929,9.802473,-0.901406,-1.065244,15.997653,-0.418930,-2.851512,-0.154378,8.422354,0,0.003463272,0
1786465002.094452,-0.007989,-0.005026,-0.003380,-0.102051,0.021729,-0.992920,0.996120,0.018279,0.085580,-0.009357,-0.990569,0.008828,-0.136710,0.002237,2.024893,9.836586,-0.902128,-1.077489,15.711937,-0.407436,-2.804702,-0.155277,8.435773,0,0.003458905,0
1786465002.114759,-0.006790,-0.003295,-0.002714,-0.101318,0.021240,-0.992188,0.996093,0.018313,0.085885,-0.009368,-0.990899,0.008865,-0.134301,0.002149,2.028561,9.871689,-0.902433,-1.078592,15.433464,-0.394629,-2.757230,-0.157795,8.449744,0,0.003473283,0
1786465002.134526,-0.004527,-0.002496,-0.001915,-0.101807,0.021729,-0.992676,0.996065,0.018359,0.086194,-0.009375,-0.991218,0.008941,-0.131919,0.002061,2.033653,9.907224,-0.902244,-1.084565,15.158109,-0.382575,-2.711960,-0.157223,8.462012,0,0.003461106,0
1786465002.154709,-0.003328,-0.000632,-0.001249,-0.102051,0.021973,-0.992676,0.996037,0.018412,0.086511,-0.009380,-0.991527,0.009027,-0.129572,0.001974,2.039525,9.943807,-0.901621,-1.091642,14.886980,-0.370775,-2.667078,-0.157953,8.474337,0,0.003469626,0
1786465002.174583,-0.001464,0.000167,-0.000317,-0.101562,0.021240,-0.992920,0.996007,0.018473,0.086833,-0.009380,-0.991824,0.008989,-0.127280,0.001886,2.046476,9.980848,-0.900449,-1.084381,14.622266,-0.357039,-2.621911,-0.159674,8.486068,0,0.003462917,0
1786465002.194624,-0.000266,0.001898,0.000082,-0.101807,0.020996,-0.992676,0.995977,0.018541,0.087163,-0.009379,-0.992112,0.008932,-0.125024,0.001801,2.054121,10.018879,-0.899010,-1.074946,14.361815,-0.343435,-2.578656,-0.158690,8.497794,0,0.003464927,0
1786465002.215091,0.001332,0.002830,0.001015,-0.102051,0.020996,-0.992676,0.995947,0.018616,0.087498,-0.009374,-0.992391,0.008888,-0.122792,0.001713,2.062773,10.057425,-0.897006,-1.067015,14.104159,-0.329807,-2.535917,-0.156982,8.508940,0,0.003484673,0
1786465002.234624,0.002397,0.003895,0.001813,-0.101807,0.021484,-0.992920,0.995915,0.018698,0.087837,-0.009365,-0.992659,0.008918,-0.120609,0.001625,2.072195,10.096550,-0.894495,-1.067976,13.852151,-0.317280,-2.493086,-0.155161,8.519526,0,0.003459660,0
1786465002.254488,0.002531,0.005360,0.002879,-0.101562,0.020264,-0.992920,0.995883,0.018780,0.088185,-0.009351,-0.992917,0.008791,-0.118477,0.001531,2.081659,10.136523,-0.891355,-1.050620,13.606309,-0.302020,-2.451260,-0.156654,8.529876,0,0.003454993,0
1786465002.274362,0.003196,0.004960,0.003145,-0.101318,0.020996,-0.993164,0.995851,0.018867,0.088529,-0.009336,-0.993166,0.008797,-0.116373,0.001440,2.091639,10.176239,-0.888043,-1.048852,13.363590,-0.289046,-2.410054,-0.153084,8.539697,0,0.003451832,0
1786465002.294341,0.002930,0.006292,0.003545,-0.101562,0.020508,-0.993652,0.995818,0.018951,0.088881,-0.009319,-0.993407,0.008747,-0.114302,0.001350,2.101449,10.216721,-0.884476,-1.040646,13.124861,-0.275419,-2.370143,-0.153487,8.548845,0,0.003453976,0
1786465002.314300,0.001998,0.006425,0.003944,-0.100830,0.020508,-0.993408,0.995785,0.019032,0.089233,-0.009300,-0.993638,0.008727,-0.112276,0.001259,2.110794,10.257267,-0.880663,-1.036056,12.891282,-0.262258,-2.329648,-0.152451,8.558474,0,0.003454710,0
1786465002.334333,0.000666,0.007490,0.004477,-0.101318,0.020752,-0.994141,0.995752,0.019106,0.089591,-0.009277,-0.993862,0.008758,-0.110272,0.001166,2.119459,10.298406,-0.876507,-1.037434,12.660322,-0.249538,-2.291377,-0.151835,8.566709,0,0.003458440,0
1786465002.354375,-0.000665,0.007890,0.004876,-0.101562,0.020508,-0.994141,0.995719,0.019173,0.089950,-0.009251,-0.994080,0.008765,-0.108290,0.001072,2.127371,10.339772,-0.872111,-1.036137,12.431903,-0.236443,-2.253133,-0.152706,8.575434,0,0.003461627,0
1786465002.374408,-0.002263,0.007490,0.005808,-0.100830,0.020752,-0.994873,0.995685,0.019234,0.090308,-0.009220,-0.994289,0.008819,-0.106347,0.000972,2.134518,10.380879,-0.867164,-1.040230,12.208097,-0.223266,-2.214151,-0.152667,8.583220,0,0.003463640,0
1786465002.394617,-0.003728,0.007490,0.005675,-0.101074,0.020752,-0.995361,0.995652,0.019287,0.090665,-0.009189,-0.994493,0.008874,-0.104421,0.000876,2.140806,10.421990,-0.862291,-1.044546,11.986267,-0.210543,-2.176973,-0.153792,8.590894,0,0.003472669,0
1786465002.414630,-0.005725,0.006825,0.006607,-0.101318,0.020020,-0.994629,0.995619,0.019329,0.091020,-0.009153,-0.994693,0.008842,-0.102506,0.000773,2.145945,10.462720,-0.856902,-1.038783,11.765699,-0.196072,-2.139941,-0.155735,8.599605,0,0.003471106,0
1786465002.434591,-0.006790,0.006692,0.006740,-0.101074,0.020508,-0.995117,0.995587,0.019367,0.091373,-0.009115,-0.994885,0.008895,-0.100619,0.000673,2.150553,10.503358,-0.851421,-1.042994,11.548426,-0.182935,-2.102713,-0.154623,8.606914,0,0.003467722,0
1786465002.455049,-0.007190,0.006292,0.007406,-0.100098,0.021240,-0.995117,0.995554,0.019404,0.091725,-0.009074,-0.995069,0.009037,-0.098770,0.000568,2.155119,10.543731,-0.845534,-1.057618,11.335600,-0.170354,-2.065259,-0.154817,8.614431,0,0.003486388,0
1786465002.474750,-0.007989,0.004028,0.007806,-0.100830,0.020996,-0.994629,0.995522,0.019436,0.092065,-0.009031,-0.995252,0.009118,-0.096905,0.000466,2.159205,10.582809,-0.839468,-1.065072,11.121000,-0.157303,-2.029808,-0.157752,8.622202,0,0.003468112,0
1786465002.494771,-0.008122,0.003629,0.008205,-0.100342,0.020508,-0.996094,0.995491,0.019468,0.092403,-0.008985,-0.995428,0.009118,-0.095077,0.000362,2.163201,10.621662,-0.833184,-1.063292,10.910657,-0.143258,-1.993218,-0.159662,8.627883,0,0.003468038,0
1786465002.514797,-0.007456,0.002830,0.008205,-0.100830,0.021240,-0.996094,0.995459,0.019503,0.092737,-0.008941,-0.995600,0.009212,-0.093249,0.000264,2.167653,10.660042,-0.826897,-1.072494,10.700343,-0.130784,-1.958203,-0.158639,8.634802,0,0.003468154,0
1786465002.535025,-0.007456,0.002031,0.008738,-0.100586,0.021484,-0.995605,0.995428,0.019539,0.093067,-0.008893,-0.995767,0.009318,-0.091438,0.000163,2.172193,10.697946,-0.820306,-1.083106,10.491998,-0.118167,-1.922439,-0.160069,8.642042,0,0.003476895,0
1786465002.554765,-0.005592,0.000433,0.008871,-0.101074,0.021484,-0.995361,0.995398,0.019584,0.093389,-0.008846,-0.995931,0.009385,-0.089624,0.000068,2.177794,10.734936,-0.813670,-1.089294,10.283378,-0.105834,-1.887551,-0.161601,8.648873,0,0.003462629,0
1786465002.574669,-0.004260,-0.000233,0.009270,-0.100342,0.021484,-0.995850,0.995367,0.019636,0.093708,-0.008797,-0.996090,0.009429,-0.087845,-0.000027,2.184217,10.771532,-0.806807,-1.092908,10.078838,-0.093294,-1.851557,-0.162510,8.654830,0,0.003458926,0
1786465002.594645,-0.002130,-0.001165,0.009936,-0.100586,0.021973,-0.995361,0.995337,0.019699,0.094022,-0.008746,-0.996244,0.009514,-0.086070,-0.000123,2.191988,10.807568,-0.799560,-1.101293,9.874809,-0.080974,-1.817151,-0.162324,8.661530,0,0.003459147,0
1786465002.614504,-0.000932,-0.001032,0.010069,-0.101318,0.021729,-0.995361,0.995306,0.019768,0.094336,-0.008696,-0.996394,0.009540,-0.084303,-0.000216,2.200417,10.843686,-0.792237,-1.102918,9.671728,-0.068480,-1.783505,-0.163869,8.667550,0,0.003454380,0
1786465002.634337,0.001598,-0.002363,0.010336,-0.101074,0.021484,-0.994873,0.995276,0.019849,0.094644,-0.008645,-0.996541,0.009517,-0.082551,-0.000306,2.210302,10.879039,-0.784786,-1.098975,9.470379,-0.055835,-1.748738,-0.164013,8.673979,0,0.003449679,0
1786465002.654366,0.002531,-0.002763,0.010202,-0.101074,0.021240,-0.994385,0.995245,0.019935,0.094949,-0.008595,-0.996684,0.009470,-0.080815,-0.000392,2.220684,10.914170,-0.777421,-1.092329,9.270826,-0.043454,-1.714661,-0.163525,8.680225,0,0.003454458,0
1786465002.674396,0.004128,-0.002630,0.010336,-0.101318,0.021484,-0.995361,0.995215,0.020029,0.095255,-0.008545,-0.996822,0.009459,-0.079096,-0.000476,2.232034,10.949366,-0.769963,-1.089906,9.073308,-0.031757,-1.681220,-0.161956,8.684827,0,0.003458083,0
1786465002.694397,0.005061,-0.002896,0.011268,-0.101318,0.021484,-0.994873,0.995184,0.020128,0.095560,-0.008492,-0.996956,0.009451,-0.077394,-0.000565,2.244034,10.984386,-0.761961,-1.087828,8.877783,-0.019463,-1.647780,-0.161447,8.690718,0,0.003459626,0
1786465002.714446,0.005593,-0.002630,0.011135,-0.101318,0.021240,-0.994385,0.995153,0.020229,0.095866,-0.008439,-0.997085,0.009417,-0.075714,-0.000651,2.256311,11.019563,-0.754029,-1.082834,8.684828,-0.007447,-1.614764,-0.161343,8.696426,0,0.003462783,0
1786465002.734419,0.005194,-0.002763,0.011268,-0.101807,0.021973,-0.993652,0.995122,0.020329,0.096171,-0.008385,-0.997210,0.009496,-0.074039,-0.000735,2.268468,11.054641,-0.745999,-1.090893,8.492459,0.003435,-1.582577,-0.159947,8.702218,0,0.003461987,0
1786465002.754409,0.005460,-0.002363,0.011534,-0.101562,0.020508,-0.993408,0.995091,0.020430,0.096479,-0.008330,-0.997331,0.009369,-0.072398,-0.000819,2.280649,11.089973,-0.737832,-1.075270,8.304003,0.016045,-1.549843,-0.162816,8.707341,0,0.003462053,0
1786465002.774507,0.003995,-0.001964,0.011800,-0.102051,0.020508,-0.993896,0.995059,0.020523,0.096788,-0.008273,-0.997449,0.009291,-0.070770,-0.000905,2.292027,11.125527,-0.729495,-1.065378,8.117071,0.028399,-1.518485,-0.160538,8.711601,0,0.003466762,0
1786465002.794436,0.002930,-0.000765,0.011933,-0.102051,0.020996,-0.993652,0.995027,0.020611,0.097103,-0.008215,-0.997561,0.009311,-0.069173,-0.000990,2.302889,11.161748,-0.721033,-1.066816,7.933688,0.039754,-1.487042,-0.158680,8.716411,0,0.003463067,0
1786465002.814700,0.001598,0.000034,0.012067,-0.101318,0.021240,-0.992920,0.994995,0.020694,0.097422,-0.008156,-0.997667,0.009374,-0.067615,-0.001077,2.313069,11.198411,-0.712459,-1.073173,7.754805,0.050958,-1.455374,-0.159012,8.721499,0,0.003474573,0
1786465002.834399,0.000001,0.000966,0.012200,-0.102783,0.020508,-0.993652,0.994962,0.020767,0.097747,-0.008095,-0.997771,0.009337,-0.066061,-0.001160,2.322237,11.235626,-0.703802,-1.068140,7.576422,0.062546,-1.426674,-0.161228,8.724901,0,0.003459169,0
1786465002.854527,-0.001730,0.001765,0.012599,-0.102539,0.020752,-0.992676,0.994929,0.020833,0.098074,-0.008031,-0.997871,0.009361,-0.064535,-0.001249,2.330508,11.273281,-0.694880,-1.070190,7.401353,0.074250,-1.396320,-0.160534,8.729946,0,0.003465854,0
1786465002.874380,-0.002929,0.002963,0.012866,-0.102539,0.020996,-0.992676,0.994895,0.020893,0.098408,-0.007965,-0.997966,0.009423,-0.063041,-0.001338,2.338167,11.311607,-0.685762,-1.076577,7.229926,0.085579,-1.366825,-0.160942,8.733817,0,0.003459145,0
1786465002.894406,-0.003994,0.003496,0.012866,-0.102539,0.020996,-0.992188,0.994861,0.020948,0.098745,-0.007898,-0.998057,0.009481,-0.061571,-0.001426,2.345224,11.350237,-0.676624,-1.082546,7.061170,0.096877,-1.337822,-0.162312,8.738009,0,0.003461462,0
1786465002.914424,-0.004394,0.004428,0.012999,-0.102783,0.021240,-0.992188,0.994826,0.021001,0.099086,-0.007831,-0.998144,0.009561,-0.060122,-0.001513,2.352101,11.389391,-0.667375,-1.091066,6.894967,0.107931,-1.309576,-0.163230,8.741563,0,0.003462891,0
1786465002.934366,-0.005193,0.006292,0.012599,-0.102539,0.021240,-0.992920,0.994791,0.021050,0.099437,-0.007764,-0.998227,0.009626,-0.058717,-0.001594,2.358494,11.429620,-0.658307,-1.098071,6.733814,0.118364,-1.281441,-0.164910,8.744218,0,0.003460700,0
1786465002.954592,-0.005459,0.006558,0.012999,-0.103271,0.021484,-0.993408,0.994755,0.021097,0.099788,-0.007696,-0.998307,0.009709,-0.057318,-0.001679,2.364796,11.469989,-0.648991,-1.107002,6.573279,0.129137,-1.254845,-0.165979,8.746975,0,0.003471164,0
1786465002.974608,-0.004527,0.008556,0.013265,-0.102783,0.022217,-0.993652,0.994718,0.021151,0.100150,-0.007626,-0.998383,0.009859,-0.055964,-0.001763,2.371777,11.511474,-0.639445,-1.123753,6.418042,0.139308,-1.227423,-0.166637,8.749847,0,0.003470128,0
1786465002.994558,-0.003062,0.008955,0.013398,-0.102295,0.021973,-0.993408,0.994681,0.021212,0.100513,-0.007557,-0.998455,0.009930,-0.054643,-0.001845,2.379602,11.553189,-0.629806,-1.131378,6.266506,0.149801,-1.200597,-0.169509,8.753039,0,0.003466518,0
1786465003.014389,-0.001864,0.009355,0.012866,-0.102783,0.021973,-0.994385,0.994643,0.021278,0.100878,-0.007491,-0.998525,0.009972,-0.053336,-0.001919,2.388047,11.595145,-0.620465,-1.135808,6.116590,0.159520,-1.175366,-0.170650,8.754899,0,0.003458716,0
1786465003.034309,-0.000532,0.009754,0.013132,-0.102295,0.021973,-0.993408,0.994605,0.021351,0.101246,-0.007424,-0.998592,0.009999,-0.052057,-0.001994,2.397306,11.637321,-0.610947,-1.138543,5.970028,0.169437,-1.149443,-0.171205,8.758625,0,0.003456634,0
1786465003.054359,0.001598,0.010154,0.013531,-0.102051,0.021973,-0.994141,0.994566,0.021435,0.101615,-0.007356,-0.998656,0.010004,-0.050806,-0.002071,2.407850,11.679713,-0.601176,-1.138772,5.826520,0.179724,-1.124333,-0.171310,8.760520,0,0.003460625,0
1786465003.074425,0.002797,0.010287,0.012999,-0.101562,0.021973,-0.993896,0.994526,0.021525,0.101985,-0.007291,-0.998718,0.010004,-0.049580,-0.002142,2.419042,11.722190,-0.591701,-1.138427,5.685921,0.189213,-1.099432,-0.171184,8.763291,0,0.003464287,0
1786465003.094806,0.004528,0.010154,0.012866,-0.101807,0.021729,-0.994385,0.994487,0.021623,0.102354,-0.007228,-0.998778,0.009961,-0.048363,-0.002211,2.431185,11.764598,-0.582305,-1.133141,5.546452,0.198759,-1.075733,-0.171074,8.765223,0,0.003480497,0
1786465003.114434,0.006259,0.010020,0.013265,-0.102051,0.021729,-0.994873,0.994447,0.021730,0.102722,-0.007164,-0.998836,0.009919,-0.047157,-0.002277,2.444376,11.806917,-0.572670,-1.128149,5.408117,0.207983,-1.052109,-0.169934,8.767103,0,0.003460585,0
1786465003.134392,0.007191,0.009887,0.013265,-0.101318,0.021729,-0.995117,0.994407,0.021842,0.103089,-0.007100,-0.998891,0.009886,-0.045980,-0.002345,2.458135,11.849154,-0.563023,-1.124028,5.273205,0.217233,-1.027808,-0.168930,8.769141,0,0.003459635,0
1786465003.154338,0.008123,0.009621,0.012999,-0.101074,0.020996,-0.995117,0.994367,0.021957,0.103456,-0.007038,-0.998944,0.009764,-0.044822,-0.002409,2.472332,11.891258,-0.553545,-1.109843,5.140409,0.226465,-1.004515,-0.168834,8.771314,0,0.003458456,0
1786465003.174346,0.008123,0.008822,0.012732,-0.101318,0.021240,-0.994629,0.994327,0.022073,0.103818,-0.006978,-0.998996,0.009712,-0.043664,-0.002469,2.486534,11.932901,-0.544228,-1.103675,5.007605,0.234970,-0.981970,-0.166215,8.773931,0,0.003460167,0
1786465003.194321,0.008789,0.007757,0.013132,-0.101562,0.021240,-0.995605,0.994287,0.022192,0.104175,-0.006916,-0.999046,0.009669,-0.042507,-0.002533,2.501174,11.973921,-0.534694,-1.098657,4.874940,0.243736,-0.959358,-0.165073,8.775007,0,0.003460094,0
1786465003.214473,0.007324,0.006958,0.012866,-0.101807,0.021729,-0.995361,0.994248,0.022305,0.104528,-0.006855,-0.999094,0.009715,-0.041349,-0.002595,2.515010,12.014474,-0.525315,-1.103831,4.742253,0.251878,-0.936832,-0.164043,8.777240,0,0.003467538,0
1786465003.234427,0.006259,0.005493,0.012866,-0.100830,0.021484,-0.995605,0.994210,0.022412,0.104873,-0.006793,-0.999140,0.009729,-0.040210,-0.002656,2.528242,12.054187,-0.515965,-1.105347,4.611735,0.260058,-0.912923,-0.165432,8.778910,0,0.003464732,0
1786465003.254686,0.005460,0.004561,0.012999,-0.101318,0.021240,-0.995850,0.994172,0.022515,0.105214,-0.006730,-0.999186,0.009715,-0.039068,-0.002719,2.541004,12.093366,-0.506559,-1.103593,4.480832,0.268691,-0.890974,-0.166107,8.780499,0,0.003475648,0
1786465003.274710,0.003330,0.003363,0.012999,-0.101318,0.021240,-0.995361,0.994135,0.022607,0.105549,-0.006667,-0.999229,0.009725,-0.037927,-0.002782,2.552556,12.131856,-0.497176,-1.104656,4.350096,0.277081,-0.868389,-0.166276,8.782790,0,0.003473827,0
1786465003.294477,0.001998,0.002564,0.012599,-0.100586,0.020996,-0.995850,0.994098,0.022692,0.105881,-0.006605,-0.999271,0.009713,-0.036809,-0.002840,2.563295,12.169898,-0.488042,-1.103272,4.221932,0.284955,-0.845178,-0.167013,8.784035,0,0.003461469,0
1786465003.314611,0.000933,0.001498,0.012732,-0.101807,0.021240,-0.996582,0.994062,0.022772,0.106207,-0.006542,-0.999312,0.009742,-0.035673,-0.002900,2.573445,12.207324,-0.478850,-1.106607,4.091764,0.293035,-0.824317,-0.166766,8.784962,0,0.003467844,0
1786465003.334385,-0.000133,0.000433,0.012599,-0.100830,0.020996,-0.995361,0.994026,0.022847,0.106527,-0.006479,-0.999351,0.009746,-0.034558,-0.002958,2.582968,12.244142,-0.469758,-1.107142,3.963981,0.300838,-0.800901,-0.167830,8.787802,0,0.003457268,0
1786465003.354503,-0.001065,-0.000632,0.012732,-0.101318,0.021484,-0.996094,0.993991,0.022918,0.106843,-0.006415,-0.999388,0.009819,-0.033437,-0.003019,2.592024,12.280336,-0.460600,-1.115498,3.835570,0.308757,-0.779357,-0.167648,8.788619,0,0.003463994,0
1786465003.374561,-0.001730,-0.000632,0.012466,-0.100830,0.021240,-0.995117,0.993956,0.022985,0.107158,-0.006352,-0.999424,0.009851,-0.032338,-0.003076,2.600657,12.316538,-0.451594,-1.119158,3.709610,0.316467,-0.756935,-0.169488,8.791062,0,0.003466469,0
1786465003.394673,-0.001730,-0.001564,0.012599,-0.101318,0.021729,-0.995117,0.993921,0.023052,0.107468,-0.006288,-0.999458,0.009938,-0.031233,-0.003135,2.609355,12.352191,-0.442519,-1.129232,3.583058,0.324121,-0.735719,-0.169657,8.792480,0,0.003470706,0
1786465003.414483,-0.001730,-0.002097,0.011800,-0.101807,0.021240,-0.995117,0.993887,0.023118,0.107777,-0.006228,-0.999491,0.009939,-0.030133,-0.003184,2.617889,12.387572,-0.433935,-1.129514,3.456918,0.330938,-0.714486,-0.171906,8.793830,0,0.003460950,0
1786465003.434441,-0.000932,-0.001831,0.012333,-0.102295,0.021729,-0.994141,0.993852,0.023189,0.108086,-0.006166,-0.999523,0.010002,-0.029037,-0.003238,2.627002,12.423080,-0.425015,-1.136783,3.331440,0.338168,-0.693466,-0.171336,8.796128,0,0.003459947,0
1786465003.454385,0.000400,-0.002097,0.012067,-0.102051,0.021973,-0.994385,0.993817,0.023267,0.108394,-0.006107,-0.999553,0.010071,-0.027958,-0.003289,2.636886,12.458434,-0.416244,-1.144836,3.207771,0.345017,-0.671725,-0.172107,8.797134,0,0.003458591,0
1786465003.474532,0.001598,-0.001831,0.012466,-0.102295,0.021729,-0.994141,0.993782,0.023351,0.108703,-0.006045,-0.999582,0.010083,-0.026890,-0.003345,2.647487,12.493933,-0.407232,-1.146361,3.085457,0.352558,-0.650877,-0.173513,8.798555,0,0.003466183,0
1786465003.494449,0.002930,-0.001697,0.012466,-0.102295,0.021973,-0.993896,0.993746,0.023442,0.109013,-0.005985,-0.999609,0.010117,-0.025837,-0.003398,2.658891,12.529500,-0.398203,-1.150386,2.964843,0.359802,-0.629996,-0.173302,8.799941,0,0.003462171,0
1786465003.514442,0.004528,-0.001165,0.012200,-0.102539,0.022705,-0.993652,0.993710,0.023541,0.109325,-0.005927,-0.999634,0.010227,-0.024797,-0.003449,2.671272,12.565359,-0.389290,-1.163156,2.845669,0.366496,-0.609723,-0.172972,8.801257,0,0.003462345,0
1786465003.534885,0.007058,-0.001032,0.012200,-0.102295,0.021729,-0.993896,0.993673,0.023652,0.109638,-0.005870,-0.999660,0.010162,-0.023776,-0.003502,2.685013,12.601312,-0.380388,-1.155953,2.728703,0.373892,-0.589123,-0.175627,8.802003,0,0.003481652,0
1786465003.554719,0.008256,0.000433,0.012200,-0.102051,0.021484,-0.992676,0.993635,0.023768,0.109958,-0.005813,-0.999683,0.010082,-0.022787,-0.003551,2.699445,12.638105,-0.371441,-1.147000,2.615337,0.380832,-0.569165,-0.174480,8.804208,0,0.003470256,0
1786465003.574587,0.009188,0.001498,0.011800,-0.102051,0.021484,-0.992676,0.993596,0.023890,0.110283,-0.005759,-0.999705,0.010020,-0.021821,-0.003596,2.714386,12.675513,-0.362690,-1.140009,2.504688,0.387238,-0.549984,-0.172794,8.805135,0,0.003463127,0
1786465003.594802,0.010254,0.002031,0.011800,-0.102539,0.021729,-0.993164,0.993557,0.024017,0.110611,-0.005706,-0.999726,0.009997,-0.020864,-0.003642,2.729977,12.713217,-0.353911,-1.137578,2.395082,0.393700,-0.531657,-0.171133,8.805514,0,0.003472526,0
1786465003.614729,0.010387,0.002830,0.012466,-0.103027,0.021729,-0.992676,0.993517,0.024145,0.110943,-0.005649,-0.999745,0.009982,-0.019920,-0.003693,2.745744,12.751356,-0.344711,-1.136116,2.286878,0.400662,-0.513543,-0.170739,8.806805,0,0.003467353,0
1786465003.634648,0.010387,0.003895,0.012599,-0.102783,0.020752,-0.992676,0.993477,0.024272,0.111280,-0.005592,-0.999764,0.009847,-0.019005,-0.003746,2.761452,12.790119,-0.335415,-1.120826,2.182052,0.408005,-0.494993,-0.171488,8.807558,0,0.003463064,0
1786465003.655862,0.010121,0.004162,0.012067,-0.102783,0.021729,-0.992676,0.993436,0.024398,0.111619,-0.005537,-0.999780,0.009875,-0.018098,-0.003800,2.777072,12.829020,-0.326389,-1.124309,2.078132,0.415186,-0.477167,-0.167836,8.808310,0,0.003515256,0
1786465003.674395,0.009055,0.005493,0.012067,-0.102051,0.020996,-0.992920,0.993395,0.024519,0.111964,-0.005481,-0.999796,0.009819,-0.017232,-0.003840,2.792047,12.868692,-0.317330,-1.118102,1.978931,0.420838,-0.458777,-0.169654,8.808707,0,0.003439989,0
1786465003.694346,0.007990,0.005893,0.012067,-0.102783,0.020996,-0.993164,0.993353,0.024635,0.112311,-0.005425,-0.999811,0.009781,-0.016374,-0.003888,2.806416,12.908591,-0.308252,-1.113998,1.880611,0.427379,-0.442692,-0.168684,8.809083,0,0.003443837,0
1786465003.714316,0.006658,0.006425,0.012599,-0.102051,0.020996,-0.993408,0.993311,0.024745,0.112661,-0.005365,-0.999824,0.009765,-0.015543,-0.003943,2.820132,12.948773,-0.298832,-1.112429,1.785458,0.434523,-0.425237,-0.168251,8.809416,0,0.003447525,0
1786465003.734427,0.004927,0.007091,0.012466,-0.102539,0.021240,-0.993896,0.993269,0.024846,0.113014,-0.005305,-0.999836,0.009798,-0.014722,-0.003996,2.832876,12.989331,-0.289457,-1.116375,1.691415,0.441504,-0.409580,-0.168083,8.809451,0,0.003456325,0
1786465003.754509,0.003596,0.007490,0.012599,-0.102783,0.021240,-0.994141,0.993226,0.024941,0.113369,-0.005243,-0.999847,0.009832,-0.013911,-0.004051,2.844888,13.030112,-0.279984,-1.120511,1.598621,0.448602,-0.393805,-0.169032,8.809682,0,0.003461752,0
1786465003.774365,0.002397,0.007757,0.012732,-0.102051,0.021240,-0.994385,0.993183,0.025030,0.113725,-0.005180,-0.999857,0.009867,-0.013125,-0.004106,2.856264,13.071035,-0.270412,-1.124848,1.508635,0.455729,-0.377224,-0.169992,8.809880,0,0.003456180,0
1786465003.794519,0.001332,0.008156,0.012599,-0.102295,0.021973,-0.994141,0.993141,0.025114,0.114083,-0.005117,-0.999865,0.009998,-0.012348,-0.004161,2.867104,13.112171,-0.260879,-1.140033,1.419671,0.462757,-0.362168,-0.170215,8.810527,0,0.003464692,0
1786465003.814380,0.000533,0.008023,0.012866,-0.102539,0.020996,-0.994629,0.993098,0.025193,0.114441,-0.005053,-0.999874,0.009971,-0.011579,-0.004217,2.877418,13.153245,-0.251211,-1.137276,1.331661,0.470097,-0.347136,-0.173959,8.810380,0,0.003458610,0
1786465003.834448,-0.000266,0.007357,0.012732,-0.102051,0.020996,-0.994629,0.993055,0.025269,0.114795,-0.004988,-0.999883,0.009960,-0.010822,-0.004274,2.887275,13.193937,-0.241630,-1.136282,1.244885,0.477437,-0.331472,-0.173653,8.810756,0,0.003462884,0
1786465003.854604,-0.000266,0.007091,0.012333,-0.101318,0.021484,-0.995117,0.993013,0.025345,0.115148,-0.004926,-0.999890,0.010017,-0.010080,-0.004327,2.897157,13.234473,-0.232266,-1.143035,1.160038,0.484325,-0.315842,-0.173006,8.810608,0,0.003469846,0
1786465003.874485,0.000267,0.006692,0.012333,-0.101318,0.021484,-0.995117,0.992970,0.025423,0.115499,-0.004864,-0.999896,0.010055,-0.009345,-0.004379,2.907352,13.274778,-0.222905,-1.147696,1.075828,0.491050,-0.301222,-0.174069,8.810894,0,0.003463341,0
1786465003.894459,0.000933,0.005626,0.013265,-0.101562,0.021729,-0.994873,0.992928,0.025506,0.115844,-0.004798,-0.999902,0.010111,-0.008604,-0.004440,2.918078,13.314438,-0.213014,-1.154380,0.991094,0.498877,-0.286850,-0.174498,8.811410,0,0.003462425,0
1786465003.914392,0.001998,0.004827,0.013132,-0.101318,0.021729,-0.995117,0.992886,0.025594,0.116186,-0.004733,-0.999907,0.010144,-0.007870,-0.004500,2.929408,13.353642,-0.203216,-1.158528,0.907027,0.506555,-0.271944,-0.175445,8.811409,0,0.003459949,0
1786465003.934421,0.003995,0.003629,0.012732,-0.100830,0.021484,-0.995850,0.992845,0.025691,0.116521,-0.004671,-0.999913,0.010122,-0.007142,-0.004557,2.941817,13.392173,-0.193683,-1.156320,0.823647,0.513927,-0.256838,-0.176016,8.810907,0,0.003462207,0
1786465003.954549,0.005061,0.003096,0.012866,-0.101318,0.021240,-0.995605,0.992803,0.025794,0.116854,-0.004610,-0.999918,0.010068,-0.006411,-0.004615,2.954828,13.430400,-0.184086,-1.150396,0.739923,0.521506,-0.242951,-0.175676,8.811377,0,0.003468124,0
1786465003.974452,0.006658,0.001232,0.012999,-0.101318,0.021973,-0.996094,0.992763,0.025905,0.117177,-0.004549,-0.999922,0.010112,-0.005670,-0.004674,2.968856,13.467534,-0.174440,-1.155813,0.655067,0.529037,-0.228247,-0.173634,8.811111,0,0.003463014,0
1786465003.994433,0.008123,0.000566,0.013265,-0.101318,0.021729,-0.995361,0.992722,0.026023,0.117497,-0.004487,-0.999926,0.010105,-0.004931,-0.004736,2.983747,13.504281,-0.164654,-1.155349,0.570537,0.536964,-0.213590,-0.174519,8.812003,0,0.003462494,0
1786465004.014497,0.009188,0.000300,0.012999,-0.101074,0.021240,-0.996094,0.992681,0.026147,0.117816,-0.004428,-0.999929,0.010028,-0.004205,-0.004796,2.999182,13.540889,-0.155034,-1.146906,0.487375,0.544695,-0.198823,-0.174719,8.811429,0,0.003465589,0
1786465004.034472,0.010653,-0.001697,0.013398,-0.100586,0.021729,-0.995850,0.992641,0.026278,0.118125,-0.004368,-0.999932,0.010029,-0.003474,-0.004859,3.015583,13.576323,-0.145214,-1.147320,0.403611,0.552842,-0.183702,-0.172507,8.811836,0,0.003464165,0
1786465004.054572,0.010920,-0.002763,0.013931,-0.101562,0.021240,-0.995361,0.992602,0.026411,0.118428,-0.004306,-0.999934,0.009965,-0.002728,-0.004929,3.032150,13.611140,-0.135122,-1.140347,0.318222,0.561672,-0.170123,-0.173002,8.812434,0,0.003468409,0
1786465004.074379,0.011053,-0.003029,0.013665,-0.100830,0.021729,-0.995850,0.992563,0.026544,0.118730,-0.004245,-0.999936,0.009983,-0.002000,-0.004994,3.048849,13.645793,-0.125168,-1.142784,0.234826,0.570003,-0.154726,-0.171331,8.812061,0,0.003459124,0
1786465004.094408,0.010653,-0.004094,0.014197,-0.101807,0.021484,-0.994873,0.992524,0.026676,0.119026,-0.004181,-0.999937,0.009968,-0.001256,-0.005066,3.065359,13.679822,-0.114936,-1.141564,0.149694,0.579081,-0.141205,-0.172049,8.813097,0,0.003461594,0
1786465004.114343,0.010121,-0.004893,0.014064,-0.100830,0.020996,-0.994873,0.992486,0.026805,0.119319,-0.004118,-0.999938,0.009902,-0.000529,-0.005137,3.081534,13.713401,-0.104805,-1.134326,0.066401,0.588013,-0.125498,-0.172446,8.813150,0,0.003459439,0
1786465004.134544,0.008656,-0.005026,0.014197,-0.101074,0.021240,-0.995605,0.992447,0.026927,0.119611,-0.004053,-0.999937,0.009893,0.000195,-0.005211,3.096930,13.746889,-0.094586,-1.133778,-0.016462,0.597288,-0.111441,-0.171233,8.812467,0,0.003469172,0
1786465004.154418,0.007457,-0.005293,0.014996,-0.101318,0.020996,-0.994385,0.992409,0.027043,0.119901,-0.003984,-0.999937,0.009868,0.000915,-0.005290,3.111739,13.780200,-0.083904,-1.131389,-0.098857,0.607180,-0.097458,-0.171650,8.813692,0,0.003462550,0
1786465004.174410,0.005993,-0.005958,0.015129,-0.101807,0.021240,-0.994873,0.992372,0.027153,0.120188,-0.003913,-0.999935,0.009891,0.001639,-0.005371,3.125758,13.813117,-0.073152,-1.134464,-0.181667,0.617307,-0.083699,-0.171280,8.813196,0,0.003462579,0
1786465004.194531,0.004395,-0.005426,0.014996,-0.102051,0.020508,-0.994385,0.992334,0.027254,0.120478,-0.003842,-0.999934,0.009825,0.002350,-0.005452,3.138780,13.846356,-0.062474,-1.127383,-0.263142,0.627323,-0.069866,-0.172854,8.813639,0,0.003468110,0
1786465004.214523,0.002797,-0.005825,0.015396,-0.102051,0.020508,-0.993896,0.992297,0.027347,0.120766,-0.003768,-0.999932,0.009791,0.003057,-0.005535,3.150958,13.879349,-0.051566,-1.123935,-0.344030,0.637677,-0.055841,-0.171966,8.814095,0,0.003466788,0
1786465004.234444,0.001598,-0.004760,0.015928,-0.101562,0.020752,-0.994141,0.992259,0.027435,0.121059,-0.003691,-0.999929,0.009807,0.003737,-0.005623,3.162586,13.912924,-0.040292,-1.126277,-0.421896,0.648585,-0.041715,-0.171373,8.813789,0,0.003462753,0
1786465004.254393,0.000267,-0.004627,0.015928,-0.101807,0.020752,-0.993408,0.992221,0.027516,0.121353,-0.003613,-0.999926,0.009831,0.004411,-0.005712,3.173462,13.946572,-0.029008,-1.129457,-0.499033,0.659476,-0.028653,-0.172038,8.814424,0,0.003460912,0
1786465004.274501,-0.000133,-0.004627,0.016461,-0.102783,0.021484,-0.993408,0.992183,0.027596,0.121647,-0.003532,-0.999921,0.009945,0.005092,-0.005806,3.184253,13.980186,-0.017389,-1.143095,-0.576795,0.671082,-0.016414,-0.171932,8.814306,0,0.003466293,0
1786465004.294383,-0.000665,-0.003162,0.016860,-0.102539,0.020996,-0.993408,0.992145,0.027674,0.121947,-0.003448,-0.999916,0.009970,0.005742,-0.005902,3.194775,14.014633,-0.005490,-1.146425,-0.651245,0.682846,-0.003153,-0.174862,8.814137,0,0.003460723,0
1786465004.314340,-0.000266,-0.002763,0.016860,-0.102539,0.020508,-0.993652,0.992106,0.027753,0.122250,-0.003365,-0.999912,0.009922,0.006379,-0.005998,3.205490,14.049316,0.006417,-1.141381,-0.724109,0.694601,0.009516,-0.175843,8.813744,0,0.003459723,0
1786465004.334323,0.000001,-0.002363,0.017526,-0.102295,0.021240,-0.993652,0.992066,0.027834,0.122555,-0.003278,-0.999907,0.009981,0.007002,-0.006101,3.216554,14.084185,0.018759,-1.148683,-0.795377,0.707201,0.022161,-0.174198,8.813612,0,0.003460075,0
1786465004.354357,0.000933,-0.001032,0.017526,-0.102783,0.021729,-0.992920,0.992025,0.027921,0.122866,-0.003192,-0.999901,0.010082,0.007613,-0.006204,3.228217,14.119802,0.031162,-1.160865,-0.865112,0.719795,0.033611,-0.174778,8.814160,0,0.003462508,0
1786465004.374343,0.002131,-0.000765,0.018325,-0.102783,0.020996,-0.992920,0.991984,0.028013,0.123178,-0.003103,-0.999896,0.010053,0.008209,-0.006315,3.240622,14.155559,0.044037,-1.158013,-0.933382,0.733110,0.045501,-0.177363,8.813944,0,0.003462336,0
1786465004.394297,0.003995,0.000300,0.018458,-0.102051,0.022217,-0.993164,0.991942,0.028116,0.123495,-0.003014,-0.999889,0.010178,0.008782,-0.006426,3.254287,14.191885,0.057070,-1.172868,-0.998758,0.746710,0.057713,-0.175292,8.813528,0,0.003460804,0
1786465004.414342,0.004794,0.001365,0.019124,-0.102051,0.021240,-0.993652,0.991899,0.028223,0.123818,-0.002922,-0.999884,0.010134,0.009332,-0.006545,3.268432,14.228817,0.070517,-1.168452,-1.061714,0.760943,0.068699,-0.178655,8.812801,0,0.003463523,0
1786465004.434394,0.006658,0.001498,0.018725,-0.102539,0.021729,-0.993652,0.991856,0.028339,0.124141,-0.002833,-0.999877,0.010152,0.009882,-0.006660,3.283647,14.265823,0.083754,-1.171058,-1.124525,0.774720,0.078960,-0.177044,8.812622,0,0.003465870,0
1786465004.454455,0.007591,0.002031,0.019390,-0.101562,0.021729,-0.994141,0.991812,0.028460,0.124467,-0.002741,-0.999871,0.010159,0.010406,-0.006781,3.299543,14.303101,0.097418,-1.172376,-1.184479,0.789300,0.090588,-0.177309,8.811920,0,0.003468056,0
1786465004.474339,0.008523,0.002830,0.019923,-0.101562,0.021729,-0.994141,0.991767,0.028587,0.124796,-0.002647,-0.999865,0.010157,0.010915,-0.006906,3.316082,14.340813,0.111436,-1.172766,-1.242699,0.804231,0.100704,-0.177370,8.811709,0,0.003462153,0
1786465004.494557,0.009055,0.002564,0.020589,-0.101807,0.020752,-0.994385,0.991722,0.028715,0.125125,-0.002550,-0.999860,0.010023,0.011421,-0.007041,3.332937,14.378368,0.125823,-1.157973,-1.300543,0.820063,0.110472,-0.178284,8.811251,0,0.003471910,0
1786465004.514413,0.009721,0.003096,0.020456,-0.101562,0.021729,-0.993896,0.991677,0.028848,0.125455,-0.002455,-0.999853,0.010050,0.011915,-0.007170,3.350293,14.416200,0.140189,-1.161707,-1.357027,0.835497,0.120526,-0.174677,8.811572,0,0.003463837,0
1786465004.534500,0.009455,0.002697,0.020589,-0.101562,0.020996,-0.994141,0.991631,0.028979,0.125784,-0.002358,-0.999847,0.009975,0.012404,-0.007303,3.367463,14.453809,0.154613,-1.153738,-1.413002,0.851166,0.130265,-0.176079,8.811090,0,0.003467601,0
1786465004.554403,0.008922,0.002564,0.020855,-0.101074,0.020752,-0.994385,0.991586,0.029108,0.126112,-0.002260,-0.999840,0.009894,0.012882,-0.007436,3.384377,14.491330,0.169199,-1.144990,-1.467677,0.866906,0.140368,-0.175079,8.810641,0,0.003462604,0
1786465004.574451,0.008256,0.001898,0.021388,-0.101562,0.021240,-0.994873,0.991541,0.029234,0.126437,-0.002159,-0.999833,0.009900,0.013367,-0.007576,3.401049,14.528434,0.184098,-1.146403,-1.523064,0.883467,0.149369,-0.173213,8.809945,0,0.003465049,0
1786465004.594740,0.006392,0.001632,0.021787,-0.101318,0.020508,-0.995361,0.991497,0.029351,0.126760,-0.002055,-0.999826,0.009822,0.013843,-0.007721,3.416666,14.565383,0.199217,-1.138092,-1.577537,0.900591,0.159143,-0.174540,8.809206,0,0.003477139,0
1786465004.614691,0.005194,0.000966,0.022986,-0.101562,0.021484,-0.995117,0.991453,0.029463,0.127079,-0.001945,-0.999817,0.009902,0.014325,-0.007874,3.431887,14.601880,0.215057,-1.147980,-1.632562,0.918830,0.168369,-0.172399,8.809223,0,0.003471834,0
1786465004.634435,0.004128,-0.000499,0.022719,-0.101562,0.021240,-0.996338,0.991410,0.029570,0.127392,-0.001835,-0.999809,0.009934,0.014813,-0.008022,3.446444,14.637549,0.230692,-1.152277,-1.688180,0.936413,0.178070,-0.174546,8.807700,0,0.003458993,0
1786465004.654655,0.001732,-0.000765,0.022852,-0.101562,0.020752,-0.995605,0.991367,0.029665,0.127703,-0.001723,-0.999800,0.009911,0.015296,-0.008176,3.459617,14.673065,0.246394,-1.150479,-1.743432,0.954574,0.187642,-0.176228,8.808145,0,0.003469619,0
1786465004.674719,0.000533,-0.001831,0.023518,-0.100830,0.020996,-0.995605,0.991325,0.029754,0.128009,-0.001607,-0.999791,0.009937,0.015776,-0.008335,3.472256,14.707936,0.262472,-1.154155,-1.798262,0.973411,0.198046,-0.175917,8.807864,0,0.003471005,0
1786465004.694524,-0.000798,-0.002763,0.023385,-0.100830,0.020508,-0.995117,0.991284,0.029837,0.128310,-0.001492,-0.999783,0.009902,0.016258,-0.008489,3.484071,14.742285,0.278434,-1.150944,-1.853294,0.991595,0.207607,-0.177291,8.808047,0,0.003460997,0
1786465004.714426,-0.001464,-0.003295,0.023785,-0.101318,0.020996,-0.995117,0.991243,0.029916,0.128608,-0.001373,-0.999773,0.009944,0.016745,-0.008648,3.495617,14.776301,0.294632,-1.156556,-1.908888,1.010410,0.216647,-0.176386,8.807756,0,0.003457580,0
1786465004.734661,-0.001997,-0.004094,0.024051,-0.101318,0.021484,-0.995605,0.991203,0.029994,0.128902,-0.001254,-0.999762,0.010041,0.017235,-0.008812,3.506957,14.809835,0.310981,-1.168478,-1.964790,1.030057,0.226331,-0.176972,8.806931,0,0.003469194,0
1786465004.754585,-0.002263,-0.004760,0.024317,-0.100830,0.021240,-0.995361,0.991163,0.030071,0.129193,-0.001133,-0.999752,0.010082,0.017719,-0.008976,3.518183,14.842978,0.327468,-1.174050,-2.019943,1.049507,0.236507,-0.179299,8.806806,0,0.003464705,0
1786465004.774569,-0.002130,-0.005958,0.024450,-0.101318,0.021240,-0.995605,0.991123,0.030148,0.129478,-0.001011,-0.999741,0.010109,0.018212,-0.009141,3.529499,14.875429,0.343996,-1.178039,-2.076281,1.069108,0.245698,-0.180228,8.806205,0,0.003463883,0
1786465004.794713,-0.001065,-0.006225,0.025116,-0.100586,0.021973,-0.995361,0.991084,0.030232,0.129761,-0.000887,-0.999730,0.010218,0.018697,-0.009316,3.541633,14.907678,0.360940,-1.191476,-2.131499,1.089952,0.256138,-0.179973,8.806084,0,0.003470093,0
1786465004.814523,-0.000266,-0.007024,0.025116,-0.101074,0.021484,-0.994873,0.991045,0.030319,0.130041,-0.000764,-0.999719,0.010228,0.019185,-0.009486,3.554175,14.939480,0.377848,-1.193550,-2.187245,1.110054,0.265236,-0.182594,8.806170,0,0.003460521,0
1786465004.834725,0.000933,-0.007423,0.025516,-0.101318,0.021484,-0.994385,0.991005,0.030413,0.130318,-0.000639,-0.999707,0.010227,0.019676,-0.009664,3.567475,14.971033,0.394985,-1.194415,-2.243258,1.131115,0.274639,-0.182715,8.806282,0,0.003469988,0
1786465004.854761,0.002397,-0.007423,0.025382,-0.101562,0.021973,-0.995117,0.990966,0.030514,0.130595,-0.000516,-0.999695,0.010277,0.020162,-0.009839,3.581659,15.002575,0.412065,-1.201092,-2.298763,1.151880,0.283965,-0.182080,8.805171,0,0.003470084,0
1786465004.874508,0.003729,-0.008222,0.025915,-0.101562,0.021484,-0.993896,0.990927,0.030622,0.130869,-0.000392,-0.999684,0.010243,0.020648,-0.010016,3.596652,15.033646,0.429426,-1.198199,-2.354268,1.172657,0.293605,-0.183454,8.805980,0,0.003457828,0
1786465004.894748,0.004262,-0.008222,0.025915,-0.101074,0.021484,-0.994385,0.990887,0.030732,0.131142,-0.000268,-0.999673,0.010213,0.021125,-0.010199,3.611986,15.064707,0.446800,-1.195718,-2.408691,1.194227,0.303626,-0.182836,8.805112,0,0.003469596,0
1786465004.914813,0.005726,-0.008089,0.026448,-0.102051,0.021484,-0.994385,0.990847,0.030850,0.131415,-0.000142,-0.999661,0.010178,0.021603,-0.010385,3.628244,15.095821,0.464499,-1.192774,-2.463337,1.216002,0.311925,-0.182128,8.804729,0,0.003471008,0
1786465004.934406,0.006259,-0.007823,0.026448,-0.101562,0.021729,-0.993652,0.990807,0.030972,0.131690,-0.000016,-0.999649,0.010183,0.022066,-0.010565,3.644872,15.127072,0.482227,-1.194425,-2.516208,1.237226,0.321674,-0.181295,8.805074,0,0.003451954,0
1786465004.954409,0.007324,-0.007290,0.026714,-0.102051,0.021240,-0.993896,0.990766,0.031098,0.131968,0.000110,-0.999637,0.010112,0.022523,-0.010752,3.662124,15.158623,0.500127,-1.187380,-2.568427,1.259112,0.330155,-0.181834,8.804430,0,0.003455097,0
1786465004.974492,0.007191,-0.006624,0.026980,-0.102051,0.021484,-0.994141,0.990725,0.031224,0.132249,0.000237,-0.999625,0.010091,0.022969,-0.010943,3.679399,15.190530,0.518228,-1.186067,-2.619280,1.281508,0.338962,-0.180407,8.803818,0,0.003460851,0
1786465004.994437,0.007058,-0.005692,0.026980,-0.102051,0.021484,-0.993408,0.990682,0.031349,0.132534,0.000365,-0.999613,0.010078,0.023399,-0.011132,3.696634,15.222961,0.536374,-1.185613,-2.668447,1.303650,0.347467,-0.180215,8.804169,0,0.003459273,0
1786465005.014396,0.006259,-0.005692,0.027380,-0.101807,0.020996,-0.992920,0.990640,0.031471,0.132820,0.000495,-0.999602,0.010010,0.023821,-0.011325,3.713459,15.255379,0.554757,-1.178972,-2.716651,1.326114,0.356125,-0.180783,8.804272,0,0.003458722,0
1786465005.034388,0.005061,-0.004494,0.027380,-0.102051,0.021484,-0.993164,0.990597,0.031587,0.133111,0.000626,-0.999590,0.010031,0.024230,-0.011517,3.729679,15.288463,0.573209,-1.182435,-2.763217,1.348750,0.363889,-0.179392,8.803678,0,0.003459705,0
1786465005.054406,0.003596,-0.003562,0.028578,-0.102539,0.020996,-0.992432,0.990554,0.031696,0.133406,0.000765,-0.999578,0.009993,0.024628,-0.011720,3.745222,15.322041,0.592401,-1.179165,-2.808657,1.372453,0.371194,-0.180769,8.804029,0,0.003461566,0
1786465005.074458,0.002131,-0.003295,0.028046,-0.102295,0.021729,-0.993164,0.990511,0.031799,0.133703,0.000901,-0.999565,0.010068,0.025017,-0.011919,3.759950,15.355766,0.611320,-1.188937,-2.852964,1.395897,0.379151,-0.179758,8.802937,0,0.003464390,0
1786465005.095540,0.000400,-0.002230,0.027912,-0.102051,0.020508,-0.993408,0.990467,0.031892,0.134006,0.001038,-0.999554,0.009974,0.025388,-0.012129,3.773584,15.390125,0.630181,-1.179264,-2.895326,1.420231,0.386775,-0.182996,8.802299,0,0.003510601,0
1786465005.114524,-0.001198,-0.001165,0.028711,-0.102051,0.020508,-0.993408,0.990422,0.031977,0.134313,0.001181,-0.999544,0.009915,0.025740,-0.012318,3.786461,15.425057,0.649567,-1.173613,-2.935487,1.442148,0.393796,-0.181623,8.801988,0,0.003455705,0
1786465005.134417,-0.001997,-0.000499,0.028445,-0.102783,0.020996,-0.993164,0.990377,0.032059,0.134624,0.001322,-0.999532,0.009940,0.026090,-0.012515,3.798898,15.460365,0.668841,-1.177648,-2.975330,1.465306,0.399804,-0.180342,8.801911,0,0.003453232,0
1786465005.154516,-0.002929,-0.000499,0.028445,-0.102051,0.020996,-0.992920,0.990332,0.032136,0.134934,0.001464,-0.999520,0.009966,0.026428,-0.012716,3.810837,15.495665,0.688130,-1.181751,-3.013859,1.488863,0.407348,-0.181219,8.801792,0,0.003460129,0
1786465005.174480,-0.003994,0.000566,0.028711,-0.102295,0.020752,-0.993652,0.990287,0.032208,0.135250,0.001609,-0.999509,0.009958,0.026753,-0.012917,3.822210,15.531566,0.707621,-1.181851,-3.050811,1.512283,0.413486,-0.182365,8.800716,0,0.003459560,0
1786465005.194614,-0.004926,0.000833,0.028711,-0.102051,0.021973,-0.994141,0.990241,0.032277,0.135567,0.001754,-0.999496,0.010116,0.027071,-0.013120,3.833197,15.567585,0.727166,-1.201120,-3.086799,1.536477,0.419994,-0.181351,8.799899,0,0.003466365,0
1786465005.214531,-0.004527,0.002031,0.029111,-0.101318,0.021973,-0.993408,0.990194,0.032348,0.135890,0.001901,-0.999484,0.010230,0.027366,-0.013325,3.844524,15.604265,0.747012,-1.215345,-3.120160,1.560724,0.426652,-0.184553,8.800244,0,0.003462274,0
1786465005.234484,-0.004127,0.001632,0.028711,-0.102051,0.021240,-0.994629,0.990147,0.032420,0.136211,0.002046,-0.999474,0.010209,0.027663,-0.013525,3.855941,15.640749,0.766591,-1.214016,-3.154091,1.584031,0.431694,-0.187634,8.798657,0,0.003460732,0
1786465005.254451,-0.003462,0.002031,0.028845,-0.101562,0.022705,-0.994385,0.990100,0.032496,0.136533,0.002191,-0.999461,0.010380,0.027953,-0.013728,3.867939,15.677414,0.786318,-1.234769,-3.186769,1.608199,0.437907,-0.185810,8.798591,0,0.003460139,0
1786465005.274483,-0.002130,0.002031,0.028711,-0.102051,0.022461,-0.994385,0.990052,0.032579,0.136856,0.002335,-0.999449,0.010461,0.028242,-0.013929,3.880663,15.714087,0.805967,-1.245206,-3.219482,1.631959,0.443000,-0.189339,8.798201,0,0.003462477,0
1786465005.294501,-0.001065,0.002430,0.028711,-0.101318,0.021729,-0.994873,0.990004,0.032667,0.137181,0.002478,-0.999439,0.010415,0.028513,-0.014132,3.893967,15.750998,0.825630,-1.241033,-3.250352,1.655437,0.449246,-0.191643,8.797362,0,0.003463644,0
1786465005.314469,0.000400,0.001632,0.028711,-0.101562,0.021729,-0.994873,0.989956,0.032762,0.137502,0.002619,-0.999429,0.010368,0.028790,-0.014334,3.908118,15.787446,0.845270,-1.236800,-3.281997,1.678827,0.454436,-0.190639,8.797065,0,0.003462392,0
1786465005.334452,0.001598,0.001232,0.028845,-0.101318,0.021729,-0.995117,0.989908,0.032863,0.137820,0.002761,-0.999418,0.010323,0.029066,-0.014538,3.923000,15.823653,0.864987,-1.232777,-3.313387,1.702483,0.460170,-0.189680,8.796519,0,0.003462086,0
1786465005.354586,0.002930,0.000433,0.028711,-0.101562,0.021484,-0.995117,0.989860,0.032970,0.138135,0.002900,-0.999408,0.010245,0.029347,-0.014743,3.938610,15.859408,0.884596,-1.225101,-3.345540,1.726118,0.465444,-0.188969,8.796212,0,0.003468320,0
1786465005.374521,0.004128,0.000300,0.028578,-0.101318,0.021729,-0.994629,0.989812,0.033084,0.138449,0.003039,-0.999397,0.010212,0.029625,-0.014945,3.954939,15.895078,0.904141,-1.222457,-3.377250,1.749497,0.471212,-0.187177,8.796403,0,0.003464527,0
1786465005.394568,0.004528,-0.000100,0.028711,-0.100830,0.021729,-0.995361,0.989764,0.033200,0.138761,0.003177,-0.999386,0.010182,0.029899,-0.015150,3.971551,15.930505,0.923765,-1.220158,-3.408394,1.773355,0.477199,-0.186641,8.795355,0,0.003466400,0
1786465005.414557,0.005860,-0.001032,0.027912,-0.101074,0.021729,-0.996338,0.989716,0.033321,0.139069,0.003311,-0.999375,0.010145,0.030179,-0.015348,3.988807,15.965423,0.942887,-1.217110,-3.440368,1.796218,0.482452,-0.185975,8.794057,0,0.003465380,0
1786465005.434472,0.004927,-0.002097,0.028046,-0.102295,0.021729,-0.995605,0.989669,0.033439,0.139371,0.003445,-0.999363,0.010123,0.030479,-0.015542,4.005537,15.999723,0.962048,-1.215828,-3.474478,1.818890,0.486906,-0.185635,8.794464,0,0.003461421,0
1786465005.454522,0.003995,-0.002896,0.027912,-0.101074,0.021240,-0.995117,0.989623,0.033551,0.139670,0.003579,-0.999352,0.010050,0.030770,-0.015740,4.021710,16.033570,0.981103,-1.208803,-3.507788,1.841711,0.494115,-0.186077,8.794598,0,0.003464197,0
1786465005.474523,0.003596,-0.003428,0.027912,-0.101318,0.021973,-0.995117,0.989577,0.033663,0.139965,0.003714,-0.999339,0.010094,0.031068,-0.015937,4.037739,16.067088,1.000165,-1.215086,-3.541577,1.864826,0.499668,-0.184220,8.794271,0,0.003464231,0
1786465005.494563,0.002664,-0.003562,0.027513,-0.101562,0.021240,-0.995605,0.989531,0.033768,0.140260,0.003847,-0.999328,0.010033,0.031362,-0.016129,4.053115,16.100557,1.018975,-1.209357,-3.575236,1.887120,0.505221,-0.186199,8.793406,0,0.003465928,0
1786465005.514521,0.001332,-0.003828,0.027513,-0.102051,0.020752,-0.994873,0.989486,0.033867,0.140554,0.003981,-0.999316,0.009933,0.031660,-0.016320,4.067691,16.133880,1.037768,-1.199180,-3.609298,1.908997,0.510535,-0.185966,8.793802,0,0.003463670,0
1786465005.534563,-0.000133,-0.004227,0.027380,-0.101562,0.021240,-0.994873,0.989440,0.033959,0.140846,0.004115,-0.999304,0.009933,0.031955,-0.016511,4.081481,16.166960,1.056491,-1.200472,-3.642918,1.931315,0.516925,-0.184022,8.793473,0,0.003465558,0
1786465005.554623,-0.001464,-0.004494,0.027247,-0.101807,0.020996,-0.994385,0.989396,0.034044,0.141136,0.004249,-0.999291,0.009910,0.032252,-0.016700,4.094475,16.199893,1.075126,-1.199061,-3.676701,1.953340,0.522478,-0.184745,8.793593,0,0.003467757,0
1786465005.574455,-0.003062,-0.005160,0.026714,-0.101807,0.021240,-0.994629,0.989351,0.034122,0.141423,0.004382,-0.999278,0.009933,0.032551,-0.016881,4.106500,16.232457,1.093431,-1.202985,-3.710706,1.974592,0.528367,-0.184554,8.792981,0,0.003459682,0
1786465005.594633,-0.004527,-0.005026,0.026448,-0.102295,0.021729,-0.993896,0.989307,0.034192,0.141711,0.004515,-0.999264,0.010024,0.032852,-0.017062,4.117697,16.265093,1.111602,-1.214741,-3.744848,1.996162,0.533675,-0.185035,8.793329,0,0.003468380,0
1786465005.614621,-0.004527,-0.004627,0.025915,-0.102783,0.021240,-0.994385,0.989263,0.034261,0.142000,0.004645,-0.999252,0.010022,0.033147,-0.017235,4.128768,16.297988,1.129467,-1.215812,-3.778463,2.016418,0.538926,-0.187508,8.792423,0,0.003466812,0
1786465005.634558,-0.005193,-0.005026,0.025915,-0.102295,0.021484,-0.993164,0.989218,0.034327,0.142288,0.004775,-0.999238,0.010060,0.033439,-0.017409,4.139503,16.330643,1.147333,-1.221376,-3.811686,2.036881,0.545234,-0.187569,8.793258,0,0.003463457,0
1786465005.654599,-0.005459,-0.004094,0.025915,-0.102295,0.021240,-0.994141,0.989173,0.034392,0.142580,0.004906,-0.999226,0.010053,0.033717,-0.017584,4.150090,16.363833,1.165241,-1.221857,-3.843321,2.057366,0.550729,-0.188817,8.791897,0,0.003465356,0
1786465005.674605,-0.005059,-0.004094,0.025249,-0.102051,0.021973,-0.993408,0.989128,0.034459,0.142873,0.005033,-0.999213,0.010141,0.033992,-0.017754,4.160885,16.397028,1.182783,-1.233244,-3.874413,2.077513,0.556369,-0.188072,8.792264,0,0.003465319,0
1786465005.694493,-0.004660,-0.003029,0.024983,-0.102783,0.022217,-0.993408,0.989082,0.034527,0.143170,0.005158,-0.999200,0.010232,0.034259,-0.017918,4.171899,16.430836,1.200224,-1.244887,-3.904612,2.097056,0.560731,-0.189677,8.791876,0,0.003460247,0
1786465005.714487,-0.003728,-0.002230,0.024850,-0.102783,0.022217,-0.992676,0.989035,0.034601,0.143472,0.005283,-0.999188,0.010292,0.034514,-0.018082,4.183450,16.465101,1.217629,-1.253020,-3.933590,2.116524,0.565733,-0.191481,8.792223,0,0.003460919,0
1786465005.734546,-0.001464,-0.001298,0.024317,-0.103271,0.021729,-0.993164,0.988987,0.034684,0.143778,0.005403,-0.999177,0.010252,0.034759,-0.018242,4.196180,16.499931,1.234752,-1.249576,-3.961580,2.135067,0.570007,-0.192903,8.791371,0,0.003464244,0
1786465005.754713,-0.000932,-0.001032,0.024184,-0.101807,0.022217,-0.993408,0.988939,0.034771,0.144085,0.005523,-0.999165,0.010283,0.034987,-0.018406,4.209293,16.534896,1.251840,-1.254250,-3.987428,2.154331,0.576200,-0.191718,8.790812,0,0.003471319,0
1786465005.774551,0.000533,0.000034,0.023785,-0.103271,0.021729,-0.992920,0.988889,0.034864,0.144398,0.005639,-0.999155,0.010227,0.035213,-0.018559,4.223131,16.570498,1.268725,-1.249015,-4.013228,2.172017,0.578937,-0.192702,8.790988,0,0.003462628,0
1786465005.794420,0.001998,0.000833,0.023385,-0.103027,0.022461,-0.993652,0.988839,0.034965,0.144715,0.005753,-0.999144,0.010269,0.035427,-0.018710,4.237845,16.606550,1.285440,-1.254852,-4.037485,2.189852,0.583430,-0.190781,8.789975,0,0.003457410,0
1786465005.814688,0.002531,0.001765,0.022586,-0.103271,0.021729,-0.992920,0.988787,0.035067,0.145037,0.005862,-0.999135,0.010198,0.035630,-0.018858,4.252685,16.643180,1.301711,-1.247840,-4.060685,2.206772,0.587132,-0.192388,8.790407,0,0.003470493,0
1786465005.834555,0.003596,0.002697,0.022586,-0.103027,0.021729,-0.992920,0.988735,0.035175,0.145363,0.005971,-0.999126,0.010138,0.035819,-0.019002,4.268175,16.680335,1.318036,-1.241924,-4.082307,2.223340,0.591168,-0.190985,8.790163,0,0.003463226,0
1786465005.854547,0.004661,0.003496,0.022453,-0.102783,0.021484,-0.992676,0.988682,0.035287,0.145694,0.006079,-0.999118,0.010053,0.035995,-0.019147,4.284268,16.717951,1.334325,-1.233149,-4.102493,2.239930,0.594946,-0.190004,8.790176,0,0.003463117,0
1786465005.874728,0.004661,0.004295,0.021521,-0.103027,0.021484,-0.993408,0.988628,0.035399,0.146028,0.006182,-0.999110,0.009985,0.036162,-0.019285,4.300228,16.756058,1.350105,-1.226408,-4.121688,2.255707,0.597979,-0.188484,8.789243,0,0.003471085,0
1786465005.894517,0.004528,0.005094,0.021255,-0.103027,0.022217,-0.993652,0.988573,0.035511,0.146367,0.006284,-0.999101,0.010032,0.036323,-0.019416,4.316168,16.794610,1.365795,-1.232624,-4.139804,2.271188,0.601121,-0.186632,8.788798,0,0.003460359,0
1786465005.914582,0.003729,0.005493,0.020589,-0.103027,0.021240,-0.993652,0.988518,0.035618,0.146707,0.006383,-0.999094,0.009941,0.036473,-0.019543,4.331472,16.833435,1.381093,-1.223135,-4.157145,2.285652,0.604118,-0.188805,8.788561,0,0.003464076,0
1786465005.934580,0.003063,0.005493,0.020456,-0.102539,0.022217,-0.993652,0.988463,0.035722,0.147047,0.006482,-0.999085,0.010007,0.036622,-0.019670,4.346495,16.872235,1.396353,-1.231615,-4.173816,2.300675,0.607571,-0.186334,8.788382,0,0.003463973,0
1786465005.954624,0.002131,0.005893,0.020189,-0.102783,0.020996,-0.993652,0.988408,0.035820,0.147390,0.006580,-0.999079,0.009901,0.036762,-0.019794,4.360844,16.911299,1.411450,-1.220226,-4.190028,2.314626,0.610091,-0.189176,8.788151,0,0.003465872,0
1786465005.974638,0.000134,0.006692,0.019124,-0.101807,0.021973,-0.993652,0.988352,0.035909,0.147736,0.006675,-0.999071,0.009966,0.036888,-0.019908,4.374008,16.950834,1.425993,-1.228485,-4.204216,2.328242,0.613678,-0.186624,8.788005,0,0.003466034,0
1786465005.994589,-0.001198,0.006292,0.018858,-0.102295,0.021973,-0.994873,0.988297,0.035991,0.148080,0.006769,-0.999064,0.010018,0.037020,-0.020019,4.386363,16.990151,1.440367,-1.235257,-4.219045,2.341309,0.615692,-0.188285,8.786572,0,0.003463479,0
1786465006.014579,-0.002529,0.006558,0.018059,-0.102539,0.021729,-0.994629,0.988242,0.036065,0.148426,0.006861,-0.999057,0.010033,0.037149,-0.020120,4.397806,17.029657,1.454279,-1.237744,-4.233642,2.353233,0.617921,-0.189929,8.786609,0,0.003463212,0
1786465006.034542,-0.003328,0.005893,0.017526,-0.101562,0.021729,-0.995361,0.988187,0.036135,0.148768,0.006950,-0.999050,0.010048,0.037274,-0.020219,4.408725,17.068800,1.467860,-1.240210,-4.247795,2.364844,0.621516,-0.190497,8.785674,0,0.003461833,0
1786465006.054553,-0.004394,0.006026,0.016594,-0.102539,0.021484,-0.994873,0.988132,0.036199,0.149112,0.007036,-0.999044,0.010034,0.037404,-0.020307,4.418840,17.108067,1.480886,-1.239246,-4.262621,2.374989,0.622923,-0.191354,8.785976,0,0.003462872,0
1786465006.074454,-0.005592,0.005360,0.016727,-0.102051,0.021729,-0.994141,0.988078,0.036258,0.149452,0.007123,-0.999036,0.010065,0.037536,-0.020395,4.428327,17.146938,1.493981,-1.243585,-4.277622,2.385516,0.626078,-0.191171,8.786514,0,0.003458950,0
1786465006.094556,-0.004926,0.005094,0.015928,-0.103271,0.021973,-0.994873,0.988024,0.036319,0.149790,0.007205,-0.999029,0.010111,0.037679,-0.020475,4.438056,17.185689,1.506594,-1.249478,-4.293825,2.395105,0.627455,-0.191536,8.785570,0,0.003464586,0
1786465006.114480,-0.004793,0.004960,0.014863,-0.102295,0.022461,-0.995605,0.987970,0.036380,0.150128,0.007282,-0.999021,0.010205,0.037814,-0.020547,4.447748,17.224395,1.518594,-1.260918,-4.309014,2.403905,0.631229,-0.191998,8.784605,0,0.003461226,0
1786465006.134502,-0.004394,0.003363,0.014730,-0.102783,0.022705,-0.995117,0.987917,0.036444,0.150459,0.007358,-0.999013,0.010302,0.037968,-0.020617,4.457643,17.262188,1.530452,-1.272764,-4.326312,2.412606,0.633637,-0.193631,8.784832,0,0.003462872,0
1786465006.154491,-0.003595,0.003229,0.014064,-0.103027,0.022461,-0.994873,0.987864,0.036511,0.150788,0.007430,-0.999006,0.010334,0.038122,-0.020680,4.467858,17.299940,1.541907,-1.277139,-4.343809,2.420259,0.636370,-0.195726,8.784807,0,0.003462676,0
1786465006.174478,-0.001997,0.002164,0.013398,-0.102051,0.022461,-0.995605,0.987811,0.036585,0.151113,0.007498,-0.998998,0.010344,0.038275,-0.020741,4.478888,17.337107,1.552929,-1.278936,-4.361276,2.427534,0.640538,-0.196149,8.783816,0,0.003462476,0
1786465006.194485,-0.001331,0.001498,0.012599,-0.102295,0.022461,-0.995605,0.987758,0.036662,0.151434,0.007560,-0.998991,0.010345,0.038435,-0.020795,4.490152,17.373928,1.563450,-1.279653,-4.379519,2.433914,0.643403,-0.196310,8.783573,0,0.003463179,0
1786465006.214506,0.001199,0.001632,0.012067,-0.102295,0.022461,-0.995361,0.987705,0.036751,0.151757,0.007618,-0.998984,0.010326,0.038591,-0.020845,4.502784,17.410846,1.573668,-1.278134,-4.397409,2.439782,0.646490,-0.195926,8.783581,0,0.003464322,0
