timestamp,gx,gy,gz,ax,ay,az,madgwick_qw,madgwick_qx,madgwick_qy,madgwick_qz,kalman_qw,kalman_qx,kalman_qy,kalman_qz,madgwick_roll_deg,madgwick_pitch_deg,madgwick_yaw_deg,kalman_roll_deg,kalman_pitch_deg,kalman_yaw_deg,robot_accel_x,robot_accel_y,robot_accel_z,kalman_converged,kalman_P_change,convergence_counter
1786467939.455856,-0.004793,0.019608,-0.079812,-0.111084,0.016846,-0.993896,1.000000,0.000026,0.000424,-0.000399,0.999954,0.008918,0.003362,-0.000422,0.003005,0.048608,-0.045728,1.021841,0.385702,-0.044951,-0.111184,0.016400,8.816000,0,0.087903733,0
1786467939.475359,-0.011451,0.018143,-0.080611,-0.109863,0.016357,-0.995117,0.999999,0.000018,0.000841,-0.000802,0.999756,0.021298,0.005758,-0.001256,0.002041,0.096395,-0.091910,2.440002,0.662753,-0.129806,-0.177802,0.189059,8.812866,0,0.031008004,0
1786467939.495182,-0.020373,0.014415,-0.082076,-0.109619,0.016357,-0.995850,0.999998,-0.000034,0.001240,-0.001212,0.999253,0.037863,0.007476,-0.002131,-0.004100,0.142047,-0.138929,4.338318,0.865316,-0.211653,-0.224693,0.429907,8.804284,0,0.016727812,0
1786467939.515665,-0.029827,0.008156,-0.083008,-0.108398,0.016846,-0.997559,0.999997,-0.000133,0.001607,-0.001627,0.998184,0.059567,0.008447,-0.003055,-0.015551,0.184084,-0.186479,6.827656,0.987144,-0.291834,-0.257562,0.752680,8.782976,0,0.011064266,0
1786467939.535442,-0.032357,0.002697,-0.084872,-0.109131,0.018066,-0.997559,0.999996,-0.000242,0.001946,-0.002051,0.996096,0.087786,0.008462,-0.003977,-0.028237,0.222942,-0.235093,10.069649,1.005896,-0.368886,-0.278662,1.177643,8.741419,0,0.008203213,0
1786467939.555410,-0.029694,-0.002630,-0.085405,-0.108643,0.018311,-0.997070,0.999994,-0.000339,0.002259,-0.002478,0.992268,0.123821,0.006935,-0.004916,-0.039445,0.258741,-0.284006,14.222474,0.858280,-0.460626,-0.281301,1.727234,8.660667,0,0.006600703,0
1786467939.576278,-0.022769,-0.007157,-0.086603,-0.109375,0.018799,-0.996582,0.999992,-0.000400,0.002549,-0.002910,0.985510,0.169491,0.002928,-0.005900,-0.046699,0.291934,-0.333599,19.514513,0.445271,-0.609507,-0.257213,2.423894,8.512299,0,0.005665775,0
1786467939.595586,-0.010918,-0.011285,-0.087269,-0.110107,0.018799,-0.994873,0.999990,-0.000403,0.002818,-0.003346,0.974122,0.225862,-0.005077,-0.006795,-0.047293,0.322774,-0.383566,26.111122,-0.390796,-0.890002,-0.187759,3.293573,8.251781,0,0.004980246,0
1786467939.615405,-0.002529,-0.012616,-0.087402,-0.110840,0.018799,-0.992920,0.999988,-0.000365,0.003081,-0.003783,0.955749,0.293453,-0.019273,-0.007643,-0.043165,0.352862,-0.433604,34.161144,-1.854093,-1.486121,-0.047100,4.335873,7.815828,0,0.004543982,0
1786467939.637224,0.002930,-0.010885,-0.088734,-0.111084,0.017578,-0.991943,0.999985,-0.000303,0.003352,-0.004226,0.927466,0.371362,-0.042719,-0.008449,-0.036336,0.384005,-0.484406,43.742367,-4.184313,-2.724084,0.199737,5.524362,7.120849,0,0.004334635,0
1786467939.655792,0.003596,-0.008355,-0.088201,-0.111816,0.017334,-0.990723,0.999982,-0.000238,0.003637,-0.004667,0.887610,0.453836,-0.078112,-0.008890,-0.029251,0.416619,-0.534902,54.490552,-7.504081,-5.015862,0.596107,6.783697,6.077204,0,0.004036064,0
1786467939.675529,-0.001730,-0.001564,-0.088201,-0.112061,0.016357,-0.989014,0.999979,-0.000203,0.003956,-0.005108,0.836009,0.533627,-0.127468,-0.009083,-0.025556,0.453172,-0.585400,66.015552,-11.737956,-8.885309,1.157586,7.935524,4.660389,0,0.003875109,0
1786467939.695547,-0.007190,0.003096,-0.088201,-0.114014,0.015869,-0.988770,0.999975,-0.000197,0.004298,-0.005548,0.775406,0.601928,-0.190652,-0.008970,-0.025257,0.492427,-0.635900,77.793835,-16.550937,-14.711416,1.868058,8.794355,2.916711,0,0.003770327,0
1786467939.718346,-0.015845,0.009088,-0.087802,-0.113281,0.015625,-0.988770,0.999971,-0.000234,0.004671,-0.005987,0.710274,0.651802,-0.265688,-0.008638,-0.030014,0.535122,-0.686172,89.437925,-21.479119,-22.667710,2.664558,9.211477,1.002944,0,0.003816063,0
1786467939.735316,-0.022370,0.015214,-0.087003,-0.113037,0.016113,-0.989258,0.999966,-0.000303,0.005075,-0.006421,0.648297,0.678300,-0.345768,-0.007950,-0.038422,0.581304,-0.735985,100.203885,-25.946827,-32.216179,3.467615,9.149731,-0.895840,0,0.003593885,0
1786467939.755531,-0.024767,0.022804,-0.086470,-0.111816,0.017334,-0.990967,0.999961,-0.000380,0.005516,-0.006852,0.592012,0.683568,-0.426854,-0.007225,-0.047875,0.631778,-0.785491,110.130868,-29.704535,-42.976828,4.168116,8.707395,-2.547902,0,0.003570748,0
1786467939.775782,-0.020772,0.025600,-0.085272,-0.111816,0.017822,-0.992432,0.999956,-0.000437,0.005971,-0.007278,0.543012,0.670905,-0.504957,-0.006454,-0.055018,0.683839,-0.834308,119.160635,-32.665700,-54.408217,4.739142,8.027923,-3.919622,0,0.003555051,0
1786467939.795524,-0.013049,0.026932,-0.084073,-0.110107,0.018311,-0.992920,0.999950,-0.000454,0.006432,-0.007697,0.501623,0.644519,-0.577007,-0.005674,-0.057643,0.736641,-0.882433,127.250602,-34.859505,-65.976185,5.176972,7.239921,-5.012527,0,0.003521353,0
1786467939.815994,-0.003728,0.025999,-0.083674,-0.109131,0.018311,-0.994873,0.999943,-0.000424,0.006888,-0.008115,0.466862,0.608507,-0.641666,-0.004933,-0.055004,0.788913,-0.930323,134.472670,-36.379799,-77.337705,5.491614,6.435795,-5.863961,0,0.003527335,0
1786467939.835876,0.006525,0.022138,-0.082209,-0.109131,0.017578,-0.996338,0.999937,-0.000346,0.007325,-0.008526,0.437694,0.566487,-0.698211,-0.004234,-0.046794,0.839017,-0.977368,140.869875,-37.330250,-88.200649,5.704697,5.662261,-6.527501,0,0.003506576,0
1786467939.855308,0.011852,0.018010,-0.080745,-0.108398,0.017334,-0.997314,0.999930,-0.000242,0.007741,-0.008930,0.413135,0.521421,-0.746610,-0.003607,-0.035609,0.886770,-1.023565,146.482188,-37.816869,-98.361746,5.836702,4.947953,-7.047037,0,0.003471787,0
1786467939.876387,0.011053,0.011885,-0.079679,-0.107910,0.015869,-0.997559,0.999923,-0.000145,0.008127,-0.009328,0.392012,0.475069,-0.787798,-0.003103,-0.025305,0.931075,-1.069151,151.418018,-37.930479,-107.811650,5.903166,4.303754,-7.457806,0,0.003516099,0
1786467939.895982,0.005993,0.006425,-0.077682,-0.108398,0.015625,-0.997070,0.999917,-0.000074,0.008486,-0.009716,0.373627,0.429449,-0.822173,-0.002706,-0.017978,0.972266,-1.113589,155.706188,-37.737743,-116.426414,5.918711,3.725833,-7.791361,0,0.003485858,0
1786467939.916235,-0.003595,0.000034,-0.075551,-0.108887,0.015381,-0.996826,0.999910,-0.000053,0.008813,-0.010093,0.357245,0.385550,-0.850718,-0.002451,-0.016234,1.009808,-1.156805,159.419346,-37.296517,-124.227031,5.891960,3.216823,-8.067628,0,0.003491327,0
1786467939.935276,-0.011052,-0.003695,-0.073421,-0.108154,0.015869,-0.995850,0.999904,-0.000067,0.009122,-0.010459,0.342547,0.344361,-0.874112,-0.002271,-0.018616,1.045195,-1.198796,162.596166,-36.675723,-131.187299,5.833221,2.768993,-8.301803,0,0.003443704,0
1786467939.955723,-0.015313,-0.006225,-0.070891,-0.109375,0.016846,-0.993652,0.999897,-0.000101,0.009418,-0.010813,0.328807,0.306137,-0.893399,-0.002164,-0.023237,1.079105,-1.239331,165.329417,-35.886828,-137.396226,5.746987,2.380987,-8.501665,0,0.003467784,0
1786467939.975521,-0.015446,-0.005559,-0.068094,-0.111084,0.017090,-0.992432,0.999891,-0.000136,0.009718,-0.011152,0.315764,0.271101,-0.909282,-0.002048,-0.027970,1.113399,-1.278262,167.674162,-34.968590,-142.900156,5.637095,2.040046,-8.681446,0,0.003458266,0
1786467939.995457,-0.010386,-0.004094,-0.065564,-0.110596,0.017822,-0.991943,0.999884,-0.000143,0.010025,-0.011479,0.303380,0.239299,-0.922330,-0.001900,-0.029616,1.148506,-1.315736,169.671105,-33.967521,-147.748135,5.510058,1.742869,-8.845892,0,0.003456952,0
1786467940.015259,0.000400,0.000966,-0.061303,-0.110840,0.018066,-0.990723,0.999877,-0.000096,0.010356,-0.011784,0.291436,0.210629,-0.933112,-0.001672,-0.025029,1.186511,-1.350764,171.376731,-32.900435,-152.009289,5.369625,1.483421,-8.994744,0,0.003450285,0
1786467940.036979,0.010387,0.006425,-0.057708,-0.111816,0.017822,-0.989746,0.999870,0.000000,0.010714,-0.012073,0.279654,0.184711,-0.942164,-0.001390,-0.014817,1.227664,-1.383731,172.842779,-31.765634,-155.776879,5.217283,1.257621,-9.132640,0,0.003527277,0
1786467940.055287,0.017178,0.013483,-0.053580,-0.111084,0.016846,-0.990234,0.999862,0.000129,0.011107,-0.012341,0.268337,0.161611,-0.949671,-0.001089,-0.000927,1.272898,-1.414333,174.077307,-30.618063,-159.061677,5.055197,1.058416,-9.264595,0,0.003439351,0
1786467940.075436,0.018110,0.017477,-0.050251,-0.110840,0.015381,-0.990723,0.999854,0.000260,0.011521,-0.012593,0.257243,0.140949,-0.956012,-0.000820,0.013145,1.320473,-1.443030,175.119712,-29.447360,-161.942967,4.888356,0.888423,-9.386275,0,0.003451752,0
1786467940.095669,0.012784,0.021872,-0.045591,-0.110596,0.015137,-0.991455,0.999846,0.000364,0.011957,-0.012821,0.246315,0.122624,-0.961401,-0.000627,0.024184,1.370572,-1.469051,175.988839,-28.259175,-164.452590,4.716018,0.744066,-9.501005,0,0.003464735,0
1786467940.115563,0.004794,0.023070,-0.042129,-0.109863,0.014893,-0.993408,0.999838,0.000429,0.012399,-0.013032,0.235556,0.106489,-0.966009,-0.000525,0.030661,1.421362,-1.493084,176.705044,-27.064073,-166.625455,4.538857,0.622365,-9.610907,0,0.003460060,0
1786467940.135231,-0.004527,0.023336,-0.037601,-0.108887,0.015381,-0.994629,0.999830,0.000449,0.012843,-0.013219,0.224948,0.092441,-0.969976,-0.000504,0.032024,1.472283,-1.514515,177.288535,-25.867701,-168.489273,4.358690,0.521587,-9.713927,0,0.003446894,0
1786467940.155411,-0.008921,0.020806,-0.033473,-0.108643,0.015869,-0.995850,0.999822,0.000448,0.013274,-0.013385,0.214342,0.080253,-0.973456,-0.000517,0.031035,1.521738,-1.533576,177.766986,-24.659285,-170.086111,4.175245,0.437975,-9.811250,0,0.003458810,0
1786467940.175390,-0.009454,0.016545,-0.028680,-0.107910,0.016602,-0.997559,0.999815,0.000447,0.013685,-0.013527,0.203759,0.069747,-0.976533,-0.000525,0.029983,1.568726,-1.549881,178.160623,-23.445827,-171.447702,3.988072,0.368047,-9.904818,0,0.003459199,0
1786467940.195309,-0.004260,0.010420,-0.024685,-0.107178,0.017090,-0.997559,0.999808,0.000472,0.014063,-0.013650,0.193158,0.060711,-0.979287,-0.000486,0.032072,1.612189,-1.563892,178.489320,-22.225705,-172.608232,3.797961,0.308666,-9.992168,0,0.003456989,0
1786467940.215938,0.003196,0.004694,-0.020823,-0.107666,0.017334,-0.998535,0.999801,0.000534,0.014413,-0.013753,0.182398,0.052912,-0.981800,-0.000392,0.038511,1.652366,-1.575684,178.768223,-20.984541,-173.602143,3.603926,0.257734,-10.076144,0,0.003485579,0
1786467940.235063,0.013450,-0.001831,-0.015231,-0.107178,0.017090,-0.997803,0.999796,0.000648,0.014730,-0.013830,0.171626,0.046162,-0.984080,-0.000233,0.050867,1.688810,-1.584270,179.007445,-19.740811,-174.455865,3.405626,0.212662,-10.155177,0,0.003442980,0
1786467940.255076,0.019175,-0.006891,-0.011103,-0.107422,0.016113,-0.996582,0.999790,0.000787,0.015021,-0.013886,0.160727,0.040232,-0.986179,-0.000053,0.066341,1.722384,-1.590495,179.212349,-18.481976,-175.199532,3.204798,0.173289,-10.229125,0,0.003448724,0
1786467940.275107,0.020507,-0.011152,-0.005510,-0.109131,0.015625,-0.995361,0.999786,0.000933,0.015290,-0.013915,0.149566,0.035052,-0.988130,0.000108,0.082545,1.753528,-1.593520,179.383962,-17.192869,-175.843658,2.998651,0.140108,-10.299232,0,0.003453820,0
1786467940.295147,0.016512,-0.012217,-0.000450,-0.109131,0.014893,-0.994141,0.999782,0.001058,0.015555,-0.013918,0.138346,0.030505,-0.989914,0.000212,0.096409,1.784075,-1.593649,179.522178,-15.897268,-176.403132,2.788344,0.112633,-10.365981,0,0.003458055,0
1786467940.315106,0.007191,-0.011152,0.005542,-0.109863,0.014893,-0.992188,0.999778,0.001136,0.015826,-0.013891,0.127011,0.026598,-0.991545,0.000228,0.105057,1.815224,-1.590343,179.626812,-14.589188,-176.879102,2.575177,0.091944,-10.427290,0,0.003457792,0
1786467940.335029,-0.000399,-0.008888,0.009936,-0.110840,0.014893,-0.990479,0.999774,0.001178,0.016108,-0.013841,0.115553,0.023273,-0.993029,0.000187,0.109427,1.847665,-1.584516,179.705187,-13.267852,-177.280576,2.358548,0.076314,-10.484406,0,0.003456076,0
1786467940.355087,-0.006924,-0.004893,0.015529,-0.111572,0.015625,-0.989990,0.999770,0.001188,0.016411,-0.013762,0.104020,0.020523,-0.994363,0.000107,0.110334,1.882369,-1.575471,179.762392,-11.939095,-177.610371,2.139009,0.065370,-10.538198,0,0.003460495,0
1786467940.375176,-0.007589,-0.000100,0.020589,-0.111328,0.015381,-0.990967,0.999766,0.001196,0.016738,-0.013658,0.092539,0.018165,-0.995543,0.000042,0.110895,1.919821,-1.563519,179.808855,-10.617630,-177.891627,1.918196,0.055807,-10.588631,0,0.003465196,0
1786467940.395066,-0.002130,0.004694,0.026448,-0.110596,0.016846,-0.991699,0.999762,0.001235,0.017088,-0.013525,0.081174,0.016306,-0.996567,0.000036,0.115092,1.959964,-1.548187,179.850497,-9.310867,-178.112996,1.698046,0.048473,-10.633500,0,0.003460220,0
1786467940.415062,0.004661,0.008556,0.031375,-0.110352,0.017578,-0.991943,0.999757,0.001311,0.017456,-0.013368,0.069859,0.014777,-0.997447,0.000087,0.123478,2.002287,-1.530013,179.890573,-8.011000,-178.294770,1.478775,0.040929,-10.672434,0,0.003461015,0
1786467940.436013,0.012651,0.010287,0.035769,-0.109375,0.016602,-0.992676,0.999753,0.001425,0.017833,-0.013190,0.058611,0.013316,-0.998192,0.000196,0.136336,2.045619,-1.509318,179.932471,-6.719922,-178.467496,1.260258,0.031519,-10.706757,0,0.003502429,0
1786467940.455257,0.019974,0.010420,0.041228,-0.109619,0.016602,-0.994385,0.999749,0.001576,0.018210,-0.012985,0.047394,0.012050,-0.998804,0.000327,0.153541,2.089011,-1.485485,179.971809,-5.433084,-178.616224,1.040757,0.023372,-10.736979,0,0.003460652,0
1786467940.475184,0.021040,0.008156,0.046155,-0.108154,0.015869,-0.995605,0.999745,0.001732,0.018576,-0.012756,0.036319,0.010842,-0.999281,0.000443,0.171395,2.131101,-1.458827,-179.994395,-4.163116,-178.757014,0.822870,0.015678,-10.761645,0,0.003458385,0
1786467940.495091,0.017178,0.004295,0.050150,-0.107910,0.015869,-0.996582,0.999741,0.001870,0.018922,-0.012506,0.025241,0.009797,-0.999633,0.000501,0.187215,2.170954,-1.429879,-179.970900,-2.893099,-178.877748,0.605776,0.010835,-10.780868,0,0.003455823,0
1786467940.515019,0.007591,-0.001964,0.054677,-0.107910,0.014893,-0.997803,0.999738,0.001958,0.019238,-0.012234,0.014115,0.008805,-0.999861,0.000468,0.197467,2.207230,-1.398351,-179.960643,-1.617929,-178.991421,0.387645,0.007899,-10.795429,0,0.003454817,0
1786467940.535071,0.000400,-0.007290,0.058805,-0.107666,0.015381,-0.997070,0.999736,0.002011,0.019528,-0.011939,0.002952,0.008032,-0.999963,0.000380,0.203871,2.240421,-1.364458,-179.959208,-0.338655,-179.079740,0.168820,0.008241,-10.803204,0,0.003459328,0
1786467940.555054,-0.006790,-0.013948,0.062933,-0.107910,0.015869,-0.996826,0.999735,0.002030,0.019784,-0.011624,-0.008294,0.007450,-0.999938,0.000248,0.206391,2.269769,-1.328205,-179.964547,0.950248,-179.145933,-0.051547,0.010119,-10.806554,0,0.003459746,0
1786467940.575153,-0.007989,-0.018875,0.067061,-0.109131,0.016357,-0.995361,0.999734,0.002044,0.020016,-0.011288,-0.019725,0.007021,-0.999781,0.000127,0.208414,2.296273,-1.289590,-179.969568,2.260304,-179.194686,-0.274239,0.012044,-10.803804,0,0.003465060,0
1786467940.595113,-0.003328,-0.022337,0.070390,-0.108887,0.017090,-0.994873,0.999733,0.002082,0.020230,-0.010935,-0.031151,0.006740,-0.999492,0.000062,0.213396,2.320757,-1.249062,-179.968782,3.570060,-179.226299,-0.498692,0.013061,-10.797003,0,0.003463074,0
1786467940.615045,0.003463,-0.023003,0.073453,-0.109863,0.017334,-0.993652,0.999733,0.002156,0.020440,-0.010568,-0.042679,0.006512,-0.999068,0.000057,0.222407,2.344842,-1.206775,-179.961474,4.891984,-179.251429,-0.723619,0.012243,-10.784401,0,0.003460449,0
1786467940.635235,0.012651,-0.021804,0.076915,-0.110840,0.017334,-0.992432,0.999732,0.002276,0.020655,-0.010185,-0.054305,0.006273,-0.998505,0.000119,0.236789,2.369594,-1.162497,-179.947058,6.225766,-179.277253,-0.950001,0.009642,-10.766586,0,0.003469465,0
1786467940.655074,0.017444,-0.019008,0.079445,-0.111084,0.016846,-0.990723,0.999731,0.002419,0.020884,-0.009790,-0.065919,0.005993,-0.997807,0.000196,0.253923,2.395941,-1.116764,-179.931723,7.558998,-179.307264,-1.176835,0.006229,-10.742831,0,0.003461289,0
1786467940.675112,0.018376,-0.014214,0.082774,-0.111328,0.016357,-0.989990,0.999729,0.002567,0.021138,-0.009378,-0.077503,0.005661,-0.996976,0.000257,0.271623,2.425021,-1.069113,-179.919436,8.889841,-179.343126,-1.402690,0.003401,-10.714772,0,0.003463593,0
1786467940.695080,0.014115,-0.009154,0.085037,-0.112061,0.015625,-0.989502,0.999727,0.002693,0.021417,-0.008954,-0.089098,0.005296,-0.996009,0.000262,0.286811,2.457001,-1.020155,-179.914677,10.223151,-179.383063,-1.627871,0.001876,-10.681691,0,0.003462354,0
1786467940.715025,0.005593,-0.004094,0.087434,-0.112061,0.015625,-0.990479,0.999724,0.002777,0.021721,-0.008517,-0.100606,0.005005,-0.994914,0.000190,0.297247,2.491856,-0.969804,-179.919029,11.547910,-179.415332,-1.851906,0.003214,-10.644712,0,0.003460421,0
1786467940.735112,-0.001464,-0.000765,0.089032,-0.111328,0.015625,-0.990967,0.999720,0.002827,0.022042,-0.008072,-0.111983,0.004791,-0.993699,0.000067,0.303760,2.528599,-0.918523,-179.929073,12.859033,-179.439536,-2.073193,0.005837,-10.602315,0,0.003465067,0
1786467940.755033,-0.008255,0.002697,0.091695,-0.110352,0.016602,-0.992188,0.999716,0.002846,0.022381,-0.007613,-0.123174,0.004752,-0.992374,-0.000092,0.306765,2.567273,-0.865687,-179.941648,14.150489,-179.444041,-2.290828,0.010329,-10.556065,0,0.003461445,0
1786467940.775070,-0.009187,0.003762,0.092627,-0.110107,0.017334,-0.993164,0.999712,0.002861,0.022724,-0.007148,-0.134294,0.004818,-0.990930,-0.000236,0.309472,2.606527,-0.812301,-179.950856,15.435549,-179.436169,-2.505329,0.013857,-10.505446,0,0.003463660,0
1786467940.795093,-0.005326,0.002564,0.093426,-0.110107,0.017822,-0.994873,0.999708,0.002897,0.023062,-0.006680,-0.145380,0.004924,-0.989364,-0.000328,0.314553,2.645071,-0.758449,-179.953181,16.718493,-179.422797,-2.718246,0.015608,-10.451028,0,0.003464774,0
1786467940.815092,0.001465,0.000034,0.093693,-0.109863,0.018555,-0.995850,0.999703,0.002968,0.023386,-0.006212,-0.156424,0.005071,-0.987677,-0.000356,0.323746,2.682131,-0.704437,-179.946836,17.998814,-179.403270,-2.929536,0.015890,-10.391214,0,0.003464555,0
1786467940.835901,0.011452,-0.004893,0.094092,-0.109375,0.017822,-0.996582,0.999698,0.003088,0.023685,-0.005743,-0.167468,0.005046,-0.985865,-0.000310,0.338567,2.716376,-0.650212,-179.934559,19.281197,-179.402359,-3.139205,0.012893,-10.326486,0,0.003499017,0
1786467940.855040,0.015846,-0.009554,0.093693,-0.109375,0.018066,-0.997070,0.999694,0.003231,0.023961,-0.005276,-0.178461,0.005083,-0.983934,-0.000247,0.356028,2.747921,-0.596222,-179.918733,20.560143,-179.393324,-3.347997,0.010533,-10.256621,0,0.003453623,0
1786467940.875119,0.017045,-0.014747,0.093426,-0.109131,0.017090,-0.996338,0.999690,0.003378,0.024211,-0.004811,-0.189464,0.004958,-0.981875,-0.000196,0.374033,2.776499,-0.542409,-179.907743,21.842818,-179.403514,-3.554634,0.007452,-10.180877,0,0.003459589,0
1786467940.895149,0.012784,-0.018209,0.092627,-0.110107,0.017334,-0.996094,0.999686,0.003504,0.024444,-0.004350,-0.200570,0.004896,-0.979667,-0.000196,0.389677,2.803069,-0.489063,-179.901509,23.140374,-179.407139,-3.760969,0.007178,-10.100788,0,0.003461947,0
1786467940.915127,0.006525,-0.020473,0.091961,-0.110596,0.016357,-0.994385,0.999682,0.003597,0.024666,-0.003891,-0.211728,0.004771,-0.977317,-0.000252,0.401535,2.828363,-0.436117,-179.903796,24.447056,-179.419773,-3.967096,0.006797,-10.013689,0,0.003461538,0
1786467940.935078,-0.002396,-0.020872,0.090630,-0.111572,0.017334,-0.994141,0.999678,0.003647,0.024886,-0.003438,-0.222954,0.004823,-0.974817,-0.000371,0.408478,2.853392,-0.383927,-179.909189,25.765037,-179.412272,-4.172866,0.010097,-9.922854,0,0.003460093,0
1786467940.955152,-0.007190,-0.019940,0.088899,-0.111328,0.017334,-0.992188,0.999673,0.003673,0.025110,-0.002993,-0.234138,0.004910,-0.972191,-0.000509,0.412661,2.878955,-0.332724,-179.915743,27.081611,-179.400957,-4.376867,0.012181,-9.825029,0,0.003464250,0
1786467940.975100,-0.008921,-0.017011,0.087834,-0.112549,0.018066,-0.991211,0.999669,0.003691,0.025349,-0.002553,-0.245384,0.005095,-0.969412,-0.000637,0.415967,2.906178,-0.282111,-179.917541,28.409005,-179.376868,-4.579458,0.014563,-9.723897,0,0.003461980,0
1786467940.995090,-0.006258,-0.012883,0.085836,-0.113525,0.019043,-0.989746,0.999663,0.003724,0.025609,-0.002123,-0.256664,0.005364,-0.966486,-0.000722,0.420948,2.935741,-0.232614,-179.910399,29.744371,-179.340216,-4.780956,0.015693,-9.617010,0,0.003462071,0
1786467941.015067,0.000800,-0.007556,0.083306,-0.113037,0.019531,-0.990234,0.999656,0.003793,0.025894,-0.001707,-0.267795,0.005620,-0.963459,-0.000738,0.430055,2.968339,-0.184533,-179.893815,31.066205,-179.302118,-4.979496,0.014178,-9.507016,0,0.003461584,0
1786467941.035077,0.007857,-0.002230,0.081309,-0.114502,0.019775,-0.989014,0.999648,0.003898,0.026207,-0.001301,-0.278988,0.005819,-0.960277,-0.000700,0.443187,3.003986,-0.137570,-179.870932,32.399497,-179.268093,-5.175347,0.011123,-9.391911,0,0.003462660,0
1786467941.055121,0.014248,0.002031,0.078912,-0.112305,0.019531,-0.989990,0.999639,0.004034,0.026540,-0.000909,-0.289864,0.005914,-0.957050,-0.000624,0.459988,3.042065,-0.091953,-179.846105,33.699340,-179.245290,-5.366698,0.006813,-9.273385,0,0.003464898,0
1786467941.075170,0.017844,0.006026,0.076249,-0.113525,0.018799,-0.990967,0.999629,0.004186,0.026894,-0.000530,-0.300761,0.005883,-0.953681,-0.000536,0.478624,3.082459,-0.047849,-179.824038,35.006301,-179.237635,-5.553919,0.002248,-9.153488,0,0.003466780,0
1786467941.095702,0.016512,0.009754,0.073053,-0.112793,0.018311,-0.991943,0.999619,0.004331,0.027267,-0.000167,-0.311512,0.005796,-0.950224,-0.000478,0.496387,3.124997,-0.005555,-179.807787,36.300345,-179.237991,-5.737418,-0.000695,-9.028613,0,0.003488823,0
1786467941.115106,0.011319,0.010953,0.069191,-0.111816,0.017578,-0.993164,0.999608,0.004449,0.027646,0.000178,-0.322063,0.005710,-0.946701,-0.000464,0.510998,3.168244,0.034530,-179.797616,37.575056,-179.240035,-5.916540,-0.002919,-8.900681,0,0.003457297,0
1786467941.135117,0.005061,0.009887,0.065996,-0.111328,0.017578,-0.993652,0.999597,0.004536,0.028019,0.000507,-0.332519,0.005672,-0.943079,-0.000501,0.521997,3.210880,0.072785,-179.792064,38.843052,-179.237560,-6.090759,-0.002787,-8.769842,0,0.003459446,0
1786467941.155165,-0.002529,0.008023,0.062800,-0.111572,0.018555,-0.995361,0.999586,0.004586,0.028383,0.000822,-0.342947,0.005799,-0.939337,-0.000586,0.528794,3.252422,0.109215,-179.784454,40.112572,-179.213846,-6.262017,-0.001036,-8.636943,0,0.003462621,0
1786467941.175071,-0.005592,0.002430,0.057873,-0.110840,0.019531,-0.995850,0.999576,0.004622,0.028719,0.001112,-0.353296,0.006052,-0.935492,-0.000668,0.533930,3.290743,0.142806,-179.768858,41.377635,-179.171427,-6.430098,-0.000573,-8.498510,0,0.003459012,0
1786467941.195060,-0.003861,-0.001032,0.052414,-0.111328,0.020020,-0.996826,0.999566,0.004666,0.029037,0.001374,-0.363658,0.006319,-0.931511,-0.000711,0.539973,3.327093,0.173256,-179.745119,42.649515,-179.123206,-6.595362,-0.002315,-8.357701,0,0.003459799,0
1786467941.215072,0.000533,-0.005958,0.048152,-0.110840,0.019775,-0.996826,0.999557,0.004732,0.029331,0.001615,-0.373957,0.006495,-0.927423,-0.000705,0.548369,3.360645,0.201237,-179.717604,43.919137,-179.083617,-6.757484,-0.005993,-8.211340,0,0.003461375,0
1786467941.235210,0.007457,-0.009021,0.042693,-0.111572,0.020264,-0.995850,0.999548,0.004832,0.029610,0.001827,-0.384306,0.006670,-0.923182,-0.000638,0.560649,3.392453,0.226078,-179.678893,45.200442,-179.038472,-6.917002,-0.009757,-8.060943,0,0.003467897,0
1786467941.255309,0.015580,-0.012084,0.036035,-0.112549,0.019775,-0.994629,0.999539,0.004971,0.029873,0.002005,-0.394720,0.006732,-0.918777,-0.000507,0.577256,3.422557,0.247079,-179.635244,46.495904,-179.003724,-7.074807,-0.016035,-7.905377,0,0.003471182,0
1786467941.275225,0.018776,-0.013149,0.030842,-0.114014,0.019531,-0.993408,0.999530,0.005124,0.030132,0.002156,-0.405208,0.006738,-0.914200,-0.000367,0.595463,3.452085,0.265091,-179.591335,47.806968,-178.974262,-7.230944,-0.021548,-7.744815,0,0.003465871,0
1786467941.295080,0.017977,-0.011285,0.026448,-0.114258,0.018311,-0.991211,0.999521,0.005271,0.030401,0.002285,-0.415636,0.006611,-0.909507,-0.000249,0.612848,3.482739,0.280580,-179.558634,49.117232,-178.965412,-7.383629,-0.027163,-7.578222,0,0.003459251,0
1786467941.315129,0.013716,-0.007690,0.021787,-0.114502,0.018066,-0.989990,0.999512,0.005396,0.030687,0.002391,-0.425988,0.006507,-0.904706,-0.000173,0.627614,3.515481,0.293416,-179.529618,50.424784,-178.954402,-7.532223,-0.029891,-7.409501,0,0.003462533,0
1786467941.335724,0.006525,-0.002763,0.017526,-0.114502,0.017822,-0.989014,0.999501,0.005484,0.030998,0.002478,-0.436247,0.006438,-0.899804,-0.000152,0.638096,3.551073,0.303837,-179.505692,51.727693,-178.940439,-7.676230,-0.031592,-7.238256,0,0.003488311,0
1786467941.355184,-0.002263,0.004694,0.012200,-0.115479,0.018066,-0.988525,0.999490,0.005527,0.031347,0.002539,-0.446411,0.006482,-0.894805,-0.000180,0.643394,3.590964,0.311254,-179.479373,53.025468,-178.910244,-7.816483,-0.032256,-7.065308,0,0.003459325,0
1786467941.375119,-0.006524,0.011752,0.008338,-0.114746,0.018555,-0.988525,0.999478,0.005549,0.031730,0.002582,-0.456347,0.006605,-0.889777,-0.000221,0.646244,3.634902,0.316510,-179.446648,54.301400,-178.865567,-7.950554,-0.032968,-6.890432,0,0.003457708,0
1786467941.395098,-0.005858,0.016945,0.004343,-0.113281,0.018555,-0.992188,0.999464,0.005574,0.032140,0.002605,-0.465977,0.006707,-0.884772,-0.000235,0.649373,3.681834,0.319516,-179.409152,55.544810,-178.820254,-8.077944,-0.035341,-6.718961,0,0.003458400,0
1786467941.415097,-0.003195,0.018676,-0.000450,-0.112793,0.019043,-0.994141,0.999451,0.005613,0.032558,0.002603,-0.475437,0.006834,-0.879723,-0.000210,0.653952,3.729772,0.319793,-179.359119,56.773296,-178.763512,-8.199646,-0.037892,-6.546991,0,0.003459764,0
1786467941.435191,0.004395,0.022804,-0.004578,-0.113281,0.019043,-0.989990,0.999436,0.005688,0.032997,0.002580,-0.484852,0.006899,-0.874569,-0.000119,0.662690,3.780107,0.317733,-179.299084,58.002822,-178.707462,-8.316819,-0.042339,-6.368823,0,0.003464813,0
1786467941.455133,0.011186,0.024934,-0.006709,-0.112305,0.019287,-0.989990,0.999420,0.005798,0.033447,0.002546,-0.494066,0.006920,-0.869397,0.000010,0.675312,3.831664,0.314478,-179.232621,59.213330,-178.651929,-8.429138,-0.046649,-6.191801,0,0.003462182,0
1786467941.475116,0.016113,0.024402,-0.008839,-0.111084,0.018555,-0.997070,0.999405,0.005931,0.033894,0.002499,-0.503022,0.006793,-0.864247,0.000158,0.690574,3.882949,0.309999,-179.175561,60.396887,-178.619460,-8.536006,-0.051905,-6.021848,0,0.003461931,0
1786467941.495977,0.018776,0.021472,-0.011769,-0.110596,0.018311,-0.997803,0.999389,0.006077,0.034327,0.002438,-0.511894,0.006642,-0.859023,0.000316,0.707230,3.932578,0.303827,-179.116071,61.576458,-178.587340,-8.637727,-0.055519,-5.847067,0,0.003499270,0
1786467941.515645,0.016778,0.017211,-0.013899,-0.110352,0.017578,-0.993408,0.999374,0.006212,0.034739,0.002366,-0.520720,0.006456,-0.853703,0.000429,0.722544,3.979801,0.296402,-179.066804,62.757183,-178.564324,-8.736053,-0.058434,-5.665104,0,0.003476357,0
1786467941.535048,0.011319,0.012151,-0.015897,-0.109863,0.017578,-0.997314,0.999360,0.006319,0.035125,0.002285,-0.529394,0.006334,-0.848352,0.000490,0.734693,4.024132,0.287802,-179.017409,63.924913,-178.531405,-8.830494,-0.059273,-5.489360,0,0.003447907,0
1786467941.555045,0.005061,0.006159,-0.018027,-0.108643,0.015869,-0.997314,0.999347,0.006393,0.035482,0.002194,-0.537927,0.006096,-0.842969,0.000511,0.742876,4.065094,0.277918,-178.990844,65.081143,-178.527391,-8.919513,-0.061696,-5.309706,0,0.003451765,0
1786467941.575077,0.005593,0.002031,-0.020823,-0.111328,0.018311,-0.995605,0.999335,0.006472,0.035818,0.002089,-0.546632,0.006195,-0.837350,0.000546,0.751649,4.103645,0.266431,-178.905658,66.267983,-178.437936,-9.007752,-0.058663,-5.128576,0,0.003456155,0
1786467941.595382,0.029695,-0.021804,-0.018959,-0.080078,0.014160,-1.022949,0.999326,0.006675,0.036034,0.001988,-0.552825,0.005661,-0.833278,0.000736,0.774639,4.128477,0.255867,-178.896936,67.117670,-178.489722,-9.062015,-0.066906,-4.966180,0,0.003471116,0
1786467941.615106,0.049269,-0.079195,0.001148,-0.103271,0.009277,-1.031250,0.999327,0.006967,0.035965,0.001981,-0.560997,0.004620,-0.827805,0.000922,0.808059,4.120522,0.256282,-178.962713,68.245875,-178.657555,-9.145531,-0.066597,-4.830882,0,0.003457589,0
1786467941.635057,0.054729,-0.082791,0.025116,-0.117920,-0.002197,-0.987793,0.999327,0.007267,0.035880,0.002093,-0.570555,0.002531,-0.821255,0.001003,0.843027,4.110572,0.270223,-179.255257,69.576170,-179.129396,-9.233284,-0.066187,-4.608266,0,0.003457148,0
1786467941.655066,0.021306,-0.061219,0.053079,-0.124512,-0.010254,-0.947510,0.999325,0.007390,0.035902,0.002350,-0.580742,0.000101,-0.814087,0.000713,0.858188,4.112816,0.300250,-179.774927,71.005378,-179.825154,-9.320281,-0.046089,-4.359561,0,0.003459214,0
1786467941.675156,-0.026098,-0.026199,0.081575,-0.131104,-0.009521,-0.962158,0.999318,0.007282,0.036097,0.002759,-0.590861,-0.001367,-0.806772,0.000019,0.847487,4.134876,0.346942,179.699144,72.436004,179.585473,-9.406644,-0.005373,-4.149631,0,0.003464261,0
1786467941.695788,-0.064981,0.025600,0.111536,-0.127686,0.004395,-0.985107,0.999302,0.007008,0.036548,0.003327,-0.599842,-0.000572,-0.800118,-0.000983,0.818672,4.186202,0.411483,179.538212,73.716754,179.571829,-9.475182,0.045881,-3.948383,0,0.003491207,0
1786467941.715233,-0.051132,0.056626,0.121256,-0.124023,0.015381,-0.966064,0.999279,0.006824,0.037151,0.003944,-0.608246,0.001317,-0.793745,-0.001712,0.800454,4.254970,0.482024,179.754135,74.925805,-179.998317,-9.532567,0.063269,-3.725220,0,0.003460806,0
1786467941.735409,-0.015978,0.086720,0.123387,-0.120850,0.022461,-0.958984,0.999248,0.006827,0.037904,0.004567,-0.616008,0.003301,-0.787730,-0.002131,0.803925,4.340735,0.554149,-179.831189,76.050915,-179.387759,-9.582609,0.058185,-3.526275,0,0.003469163,0
1786467941.756058,0.026499,0.106693,0.121656,-0.116943,0.024170,-0.993652,0.999210,0.007044,0.038756,0.005173,-0.622858,0.004479,-0.782319,-0.002207,0.832032,4.437889,0.625502,-179.456013,77.050217,-178.910786,-9.625336,0.039050,-3.380278,0,0.003495650,0
1786467941.776205,0.062585,0.109490,0.118593,-0.109863,0.021240,-1.004883,0.999170,0.007436,0.039625,0.005757,-0.629031,0.004673,-0.777363,-0.002018,0.880316,4.536721,0.695150,-179.247393,77.956789,-178.702208,-9.658484,0.018569,-3.226249,0,0.003494114,0
1786467941.795071,0.076700,0.097239,0.114598,-0.104980,0.020996,-0.995117,0.999131,0.007899,0.040432,0.006318,-0.635027,0.004739,-0.772473,-0.001759,0.936790,4.628476,0.762485,-179.022434,78.842694,-178.493432,-9.689237,0.009861,-3.061735,0,0.003438367,0
1786467941.815052,0.074303,0.075534,0.110737,-0.101562,0.018311,-1.007324,0.999095,0.008349,0.041132,0.006859,-0.640854,0.004463,-0.767648,-0.001556,0.991578,4.707811,0.827445,-178.931519,79.709500,-178.441769,-9.718474,0.002873,-2.922027,0,0.003443864,0
1786467941.835175,0.055794,0.043576,0.105144,-0.100830,0.016846,-1.029297,0.999066,0.008706,0.041671,0.007374,-0.646767,0.004265,-0.762674,-0.001489,1.035558,4.768839,0.888915,-178.862275,80.594997,-178.394471,-9.748045,0.001959,-2.791462,0,0.003454074,0
1786467941.855132,0.018110,-0.002363,0.097820,-0.098633,0.014404,-1.016602,0.999048,0.008873,0.041980,0.007858,-0.652960,0.004203,-0.757379,-0.001641,1.057411,4.803628,0.945694,-178.831846,81.528806,-178.357006,-9.774301,0.000901,-2.619372,0,0.003454737,0
1786467941.875093,-0.011851,-0.037117,0.092095,-0.099121,0.015137,-1.004639,0.999039,0.008892,0.042114,0.008319,-0.659442,0.004466,-0.751740,-0.001932,1.061968,4.818526,0.998825,-178.687138,82.513125,-178.167585,-9.800538,0.003735,-2.441992,0,0.003455364,0
1786467941.895049,-0.034354,-0.067744,0.085437,-0.104004,0.017578,-1.014404,0.999037,0.008801,0.042095,0.008749,-0.666289,0.005043,-0.745673,-0.002285,1.053517,4.815908,1.047821,-178.307374,83.560352,-177.712708,-9.828915,0.005120,-2.278374,0,0.003455645,0
1786467941.915047,-0.043808,-0.091180,0.080377,-0.106689,0.018799,-1.018555,0.999040,0.008663,0.041958,0.009155,-0.673312,0.005646,-0.739333,-0.002616,1.039430,4.799916,1.093672,-177.707411,84.642843,-177.037200,-9.852833,0.001847,-2.099625,0,0.003457618,0
1786467941.935237,-0.033023,-0.105028,0.073586,-0.110107,0.021484,-0.988281,0.999046,0.008581,0.041752,0.009525,-0.680736,0.006444,-0.732495,-0.002799,1.031551,4.775993,1.135516,-176.346655,85.794697,-175.597263,-9.874779,-0.000974,-1.882097,0,0.003467336,0
1786467941.955057,-0.009853,-0.101965,0.069857,-0.114258,0.022705,-0.981201,0.999050,0.008615,0.041562,0.009871,-0.688336,0.007121,-0.725352,-0.002785,1.036924,4.753826,1.175264,-173.721106,86.979743,-172.918198,-9.895206,-0.009719,-1.679159,0,0.003458875,0
1786467941.975021,0.022637,-0.084255,0.064664,-0.121094,0.023682,-0.989258,0.999049,0.008810,0.041462,0.010186,-0.696126,0.007576,-0.717876,-0.002557,1.060719,4.741836,1.212203,-167.418385,88.191258,-166.597226,-9.915337,-0.019915,-1.486931,0,0.003458598,0
1786467941.995062,0.046206,-0.059887,0.061868,-0.124023,0.022217,-0.975830,0.999042,0.009119,0.041486,0.010482,-0.703958,0.007613,-0.710197,-0.002218,1.097616,4.743874,1.247752,-139.546668,89.331701,-138.750069,-9.927566,-0.032600,-1.266976,0,0.003461731,0
1786467942.015127,0.058324,-0.028595,0.057873,-0.124023,0.019043,-0.959473,0.999029,0.009481,0.041668,0.010757,-0.711614,0.007173,-0.702532,-0.001847,1.140754,4.763963,1.281290,-30.754777,89.146896,-30.023841,-9.932359,-0.043454,-1.041743,0,0.003465067,0
1786467942.035001,0.053530,0.013749,0.054145,-0.125244,0.016846,-0.971680,0.999006,0.009812,0.042062,0.011016,-0.718827,0.006515,-0.695157,-0.001551,1.180601,4.808404,1.313132,-12.171167,88.040286,-11.517500,-9.933423,-0.047356,-0.849550,0,0.003459471,0
1786467942.055054,0.035421,0.043709,0.049484,-0.125488,0.014893,-0.982910,0.998978,0.010048,0.042605,0.011257,-0.725615,0.005880,-0.688075,-0.001388,1.209633,4.870091,1.342640,-7.117465,86.936120,-6.528371,-9.928923,-0.046295,-0.664000,0,0.003462861,0
1786467942.075076,0.009322,0.067545,0.043758,-0.122559,0.015137,-0.974121,0.998946,0.010153,0.043266,0.011476,-0.731983,0.005672,-0.681298,-0.001373,1.223731,4.945450,1.369182,-5.133270,85.877509,-4.562060,-9.917535,-0.041322,-0.467171,0,0.003464097,0
1786467942.095095,-0.015446,0.082592,0.036967,-0.117188,0.015869,-0.977051,0.998912,0.010135,0.044000,0.011667,-0.737785,0.005840,-0.675009,-0.001466,1.223770,5.029433,1.392052,-4.282830,84.899392,-3.690245,-9.900787,-0.039858,-0.290691,0,0.003464908,0
1786467942.115069,-0.037284,0.085787,0.027380,-0.114746,0.018311,-1.003906,0.998878,0.010011,0.044748,0.011815,-0.743164,0.006413,-0.669076,-0.001610,1.211435,5.115253,1.409503,-4.034723,83.981412,-3.383676,-9.885220,-0.041256,-0.150701,0,0.003463624,0
1786467942.135044,-0.040479,0.076600,0.018725,-0.110352,0.020752,-1.008301,0.998847,0.009874,0.045450,0.011921,-0.748283,0.007131,-0.663339,-0.001698,1.197320,5.195817,1.421910,-4.017698,83.098838,-3.300988,-9.866184,-0.047958,0.002959,0,0.003462638,0
1786467942.155038,-0.031824,0.058756,0.010202,-0.105957,0.021973,-1.000977,0.998819,0.009782,0.046063,0.011982,-0.753286,0.007725,-0.657646,-0.001672,1.187916,5.266220,1.429224,-4.002494,82.228999,-3.239304,-9.845314,-0.058868,0.163460,0,0.003462771,0
1786467942.175075,-0.013448,0.033456,0.001015,-0.104004,0.023193,-1.010010,0.998796,0.009781,0.046552,0.011992,-0.758260,0.008114,-0.651900,-0.001493,1.188659,5.322212,1.430975,-3.952418,81.356949,-3.171791,-9.824497,-0.069429,0.306668,0,0.003464663,0
1786467942.195028,0.012784,-0.003562,-0.010837,-0.104248,0.023682,-1.024170,0.998781,0.009911,0.046857,0.011934,-0.763348,0.008237,-0.645934,-0.001124,1.203766,5.357139,1.425478,-3.847138,80.457641,-3.086020,-9.802681,-0.079644,0.447306,0,0.003462514,0
1786467942.215077,0.028896,-0.033123,-0.018826,-0.103760,0.021240,-1.011230,0.998773,0.010118,0.047017,0.011831,-0.768569,0.007985,-0.639717,-0.000674,1.227304,5.375306,1.415000,-3.599447,79.527956,-2.894897,-9.776509,-0.090325,0.618010,0,0.003464999,0
1786467942.235040,0.033157,-0.057757,-0.026150,-0.104736,0.019287,-1.000488,0.998770,0.010345,0.047055,0.011690,-0.773924,0.007583,-0.633233,-0.000226,1.252601,5.379511,1.399972,-3.311083,78.565461,-2.675195,-9.748135,-0.095989,0.790449,0,0.003463215,0
1786467942.255096,0.022771,-0.076399,-0.033074,-0.108643,0.017334,-1.006348,0.998773,0.010515,0.047000,0.011514,-0.779426,0.007095,-0.626454,0.000144,1.271156,5.373210,1.380673,-2.992616,77.566619,-2.426037,-9.718998,-0.100010,0.950208,0,0.003465829,0
1786467942.275066,-0.001464,-0.085986,-0.039199,-0.112061,0.014893,-0.999023,0.998780,0.010558,0.046897,0.011314,-0.785057,0.006564,-0.619389,0.000369,1.274920,5.361606,1.357661,-2.649013,76.533504,-2.143556,-9.685850,-0.102970,1.126659,0,0.003464099,0
1786467942.295045,-0.024234,-0.082924,-0.042928,-0.114746,0.014893,-0.980957,0.998787,0.010486,0.046809,0.011099,-0.790785,0.006294,-0.612061,0.000468,1.265269,5.351832,1.332523,-2.404794,75.468998,-1.928948,-9.648790,-0.100524,1.316591,0,0.003463222,0
1786467942.315078,-0.043143,-0.070673,-0.046390,-0.118408,0.016357,-0.978760,0.998793,0.010317,0.046781,0.010873,-0.796531,0.006361,-0.604564,0.000483,1.244670,5.349101,1.305561,-2.282345,74.387021,-1.801624,-9.609084,-0.098697,1.493246,0,0.003464827,0
1786467942.335078,-0.050466,-0.051898,-0.049719,-0.122314,0.017822,-0.984863,0.998794,0.010112,0.046846,0.010633,-0.802217,0.006625,-0.596996,0.000487,1.219799,5.357138,1.276938,-2.236160,73.302225,-1.733535,-9.566093,-0.100091,1.662302,0,0.003464650,0
1786467942.355111,-0.044208,-0.021005,-0.053847,-0.122070,0.020264,-0.974609,0.998789,0.009938,0.047065,0.010373,-0.807672,0.007128,-0.589589,0.000559,1.198721,5.382834,1.246365,-2.288139,72.247130,-1.749448,-9.516205,-0.102597,1.845094,0,0.003465917,0
1786467942.375073,-0.027563,0.004960,-0.056909,-0.121582,0.021240,-0.968506,0.998776,0.009846,0.047415,0.010095,-0.812875,0.007523,-0.582389,0.000733,1.187177,5.423402,1.214364,-2.330361,71.228301,-1.772708,-9.463707,-0.110404,2.018878,0,0.003463856,0
1786467942.395051,-0.006391,0.029328,-0.061170,-0.121582,0.020996,-0.979248,0.998756,0.009858,0.047888,0.009792,-0.817755,0.007597,-0.575515,0.001025,1.187454,5.477991,1.180200,-2.308680,70.261716,-1.768127,-9.410212,-0.119068,2.169415,0,0.003462961,0
1786467942.415093,0.013050,0.049702,-0.063967,-0.119629,0.020508,-0.987793,0.998730,0.009964,0.048464,0.009471,-0.822272,0.007398,-0.569045,0.001399,1.198636,5.544301,1.144673,-2.236628,69.357625,-1.742490,-9.354586,-0.124104,2.313655,0,0.003465059,0
1786467942.435052,0.025966,0.064349,-0.068760,-0.114258,0.019531,-0.984375,0.998700,0.010133,0.049113,0.009124,-0.826383,0.007019,-0.563062,0.001820,1.216902,5.619074,1.106577,-2.136956,68.526070,-1.708222,-9.296290,-0.126702,2.460109,0,0.003463089,0
1786467942.455049,0.023703,0.067412,-0.072356,-0.111084,0.017822,-0.990967,0.998669,0.010288,0.049779,0.008760,-0.830226,0.006531,-0.557384,0.002204,1.233454,5.695690,1.066448,-2.012239,67.740957,-1.654924,-9.242102,-0.128034,2.585979,0,0.003463207,0
1786467942.475132,0.011585,0.062618,-0.077416,-0.110596,0.016602,-1.005127,0.998639,0.010380,0.050420,0.008373,-0.833941,0.006107,-0.551814,0.002519,1.242575,5.769658,1.023343,-1.899631,66.974374,-1.602955,-9.191335,-0.127329,2.697412,0,0.003466946,0
1786467942.495118,-0.009054,0.049302,-0.081410,-0.106201,0.015869,-1.007324,0.998613,0.010369,0.050994,0.007970,-0.837487,0.005876,-0.546418,0.002724,1.239617,5.836043,0.977778,-1.822863,66.234809,-1.561941,-9.135748,-0.126592,2.818556,0,0.003465667,0
1786467942.515059,-0.034354,0.025600,-0.086603,-0.103516,0.015869,-1.001953,0.998595,0.010231,0.051449,0.007547,-0.841021,0.005893,-0.540963,0.002825,1.221831,5.888897,0.928928,-1.791442,65.490054,-1.537011,-9.081254,-0.127859,2.943893,0,0.003462762,0
1786467942.535023,-0.050200,0.000034,-0.090865,-0.102783,0.016846,-1.011719,0.998583,0.010016,0.051776,0.007106,-0.844559,0.006074,-0.535421,0.002876,1.194717,5.927126,0.877314,-1.791215,64.736362,-1.525635,-9.026321,-0.130647,3.054607,0,0.003461556,0
1786467942.555070,-0.053795,-0.022870,-0.094193,-0.104736,0.019043,-1.015137,0.998578,0.009783,0.051988,0.006648,-0.848201,0.006429,-0.529628,0.002937,1.165453,5.952215,0.823529,-1.829297,63.951641,-1.538892,-8.971722,-0.133422,3.172115,0,0.003464169,0
1786467942.575146,-0.045140,-0.043775,-0.096990,-0.104004,0.020508,-1.004883,0.998577,0.009595,0.052096,0.006174,-0.851878,0.006783,-0.523688,0.003060,1.141097,5.965305,0.767916,-1.873028,63.150327,-1.562885,-8.910408,-0.138604,3.307211,0,0.003467425,0
1786467942.595077,-0.024900,-0.062551,-0.100585,-0.107178,0.021729,-0.998291,0.998580,0.009509,0.052111,0.005675,-0.855690,0.007055,-0.517430,0.003290,1.128159,5.967648,0.710038,-1.908676,62.309843,-1.594477,-8.849981,-0.143249,3.440195,0,0.003463642,0
1786467942.615080,-0.004926,-0.069608,-0.102849,-0.110107,0.020996,-1.000488,0.998584,0.009520,0.052092,0.005159,-0.859545,0.007042,-0.510998,0.003607,1.126326,5.966003,0.650763,-1.893631,61.450141,-1.606363,-8.785754,-0.149241,3.567528,0,0.003463888,0
1786467942.635077,0.011319,-0.069342,-0.104979,-0.113281,0.020264,-0.992676,0.998586,0.009610,0.052075,0.004629,-0.863454,0.006870,-0.504365,0.003979,1.133497,5.964570,0.590248,-1.851634,60.567755,-1.609422,-8.719278,-0.151470,3.705493,0,0.003463809,0
1786467942.655023,0.019175,-0.061086,-0.106444,-0.114746,0.018066,-0.980225,0.998586,0.009735,0.052100,0.004089,-0.867339,0.006452,-0.497658,0.004356,1.144701,5.967962,0.528937,-1.762591,59.679965,-1.586609,-8.648351,-0.153666,3.848853,0,0.003461580,0
1786467942.675468,0.013716,-0.040979,-0.107776,-0.118408,0.016846,-0.980713,0.998581,0.009830,0.052225,0.003545,-0.871186,0.006005,-0.490894,0.004700,1.152384,5.982951,0.467051,-1.667392,58.788860,-1.557621,-8.578493,-0.152594,3.976859,0,0.003481194,0
1786467942.695239,0.000001,-0.020739,-0.108841,-0.120361,0.015137,-0.982178,0.998570,0.009852,0.052452,0.003000,-0.874899,0.005533,-0.484248,0.004933,1.151790,6.009609,0.404743,-1.559913,57.917281,-1.509390,-8.504760,-0.150831,4.102586,0,0.003467190,0
1786467942.715325,-0.019973,0.003363,-0.109507,-0.119629,0.014404,-0.975098,0.998554,0.009773,0.052799,0.002458,-0.878416,0.005255,-0.477842,0.005082,1.139584,6.050091,0.342313,-1.485479,57.080353,-1.470915,-8.428243,-0.147792,4.232272,0,0.003470121,0
1786467942.736012,-0.038349,0.025999,-0.109640,-0.118652,0.015137,-0.973389,0.998533,0.009603,0.053259,0.001922,-0.881718,0.005306,-0.471719,0.005168,1.116959,6.103502,0.280073,-1.469177,56.283220,-1.457502,-8.352593,-0.145709,4.350501,0,0.003498018,0
1786467942.755189,-0.051398,0.050501,-0.110039,-0.117920,0.017334,-0.985596,0.998505,0.009371,0.053840,0.001388,-0.884744,0.005670,-0.466014,0.005160,1.087185,6.170859,0.217904,-1.503227,55.542652,-1.460002,-8.278787,-0.144167,4.448447,0,0.003454513,0
1786467942.775870,-0.051132,0.062751,-0.110705,-0.114746,0.018066,-0.989746,0.998473,0.009141,0.054483,0.000852,-0.887519,0.006062,-0.460701,0.005221,1.057592,6.245187,0.155482,-1.550040,54.855090,-1.478551,-8.206018,-0.151061,4.546572,0,0.003485913,0
1786467942.795415,-0.040346,0.068876,-0.111770,-0.111816,0.019531,-0.988525,0.998437,0.008967,0.055155,0.000308,-0.890129,0.006393,-0.455632,0.005304,1.034233,6.322972,0.092517,-1.588476,54.201128,-1.495671,-8.136022,-0.154451,4.644349,0,0.003461109,0
1786467942.815145,-0.022903,0.068610,-0.112170,-0.109131,0.020508,-0.995605,0.998401,0.008880,0.055827,-0.000242,-0.892586,0.006572,-0.450797,0.005469,1.020837,6.400575,0.029317,-1.608299,53.579099,-1.514147,-8.068495,-0.158343,4.728922,0,0.003450338,0
1786467942.835310,0.002797,0.055161,-0.113635,-0.105957,0.019775,-1.007324,0.998366,0.008919,0.056431,-0.000807,-0.894943,0.006365,-0.446098,0.005757,1.021772,6.470519,-0.034888,-1.572925,52.976691,-1.521019,-8.001609,-0.161502,4.806012,0,0.003460769,0
1786467942.855108,0.016113,0.039049,-0.114433,-0.104248,0.019531,-1.005615,0.998335,0.009024,0.056955,-0.001381,-0.897297,0.006076,-0.441344,0.006063,1.030136,6.531256,-0.099722,-1.525595,52.368962,-1.524502,-7.936690,-0.158648,4.893647,0,0.003452999,0
1786467942.875020,0.018909,0.019475,-0.115632,-0.103027,0.016846,-1.004883,0.998309,0.009139,0.057382,-0.001962,-0.899664,0.005542,-0.436502,0.006368,1.039513,6.580874,-0.165494,-1.437593,51.752042,-1.508483,-7.870369,-0.158357,4.980368,0,0.003451947,0
1786467942.895109,0.012784,-0.001298,-0.116298,-0.102783,0.016846,-1.008789,0.998288,0.009223,0.057705,-0.002547,-0.902058,0.005203,-0.431532,0.006637,1.045288,6.618604,-0.231866,-1.379873,51.120270,-1.503115,-7.802773,-0.151950,5.062980,0,0.003458724,0
1786467942.915370,-0.005858,-0.025533,-0.116298,-0.104248,0.015381,-1.007568,0.998275,0.009211,0.057908,-0.003126,-0.904544,0.004905,-0.426298,0.006819,1.040024,6.642497,-0.298529,-1.321811,50.456694,-1.486639,-7.733607,-0.151662,5.152009,0,0.003471176,0
1786467942.935053,-0.024234,-0.040580,-0.116431,-0.105225,0.014160,-0.999512,0.998266,0.009105,0.058037,-0.003703,-0.907066,0.004649,-0.420906,0.006898,1.023890,6.657802,-0.365461,-1.263562,49.775032,-1.457586,-7.660695,-0.150490,5.249678,0,0.003455940,0
1786467942.955084,-0.039015,-0.049102,-0.116165,-0.108154,0.014893,-0.995850,0.998260,0.008924,0.058123,-0.004273,-0.909647,0.004639,-0.415299,0.006935,0.999239,6.668203,-0.432326,-1.241948,49.067929,-1.440447,-7.587355,-0.147699,5.343836,0,0.003459250,0
1786467942.975085,-0.046205,-0.051499,-0.115366,-0.110840,0.017090,-0.995850,0.998255,0.008710,0.058197,-0.004838,-0.912241,0.004923,-0.409565,0.006945,0.970712,6.677160,-0.498719,-1.264863,48.346332,-1.440095,-7.510886,-0.145892,5.435849,0,0.003460487,0
1786467942.995073,-0.044607,-0.046439,-0.114300,-0.113525,0.018311,-0.988525,0.998249,0.008504,0.058296,-0.005397,-0.914842,0.005277,-0.403718,0.006962,0.943225,6.688962,-0.564428,-1.298401,47.612515,-1.444867,-7.432803,-0.148726,5.535156,0,0.003460859,0
1786467943.015034,-0.031025,-0.031658,-0.112969,-0.115479,0.018799,-0.979492,0.998236,0.008367,0.058468,-0.005953,-0.917401,0.005542,-0.397864,0.007027,0.923597,6.709191,-0.629220,-1.321102,46.879952,-1.450471,-7.352913,-0.151751,5.635666,0,0.003460025,0
1786467943.035071,-0.013182,-0.015013,-0.111504,-0.117676,0.019531,-0.981689,0.998218,0.008320,0.058723,-0.006506,-0.919887,0.005712,-0.392077,0.007151,0.914309,6.738920,-0.693002,-1.333246,46.157936,-1.458945,-7.272422,-0.152886,5.723663,0,0.003462614,0
1786467943.055179,0.004128,0.005626,-0.109906,-0.118408,0.019287,-0.981934,0.998193,0.008360,0.059080,-0.007055,-0.922253,0.005684,-0.386475,0.007326,0.914940,6.780466,-0.755682,-1.319177,45.460885,-1.462918,-7.191022,-0.153897,5.810684,0,0.003467562,0
1786467943.075818,0.015713,0.025201,-0.106977,-0.117676,0.017090,-0.977295,0.998162,0.008456,0.059535,-0.007592,-0.924488,0.005312,-0.381099,0.007533,0.922013,6.833257,-0.816533,-1.256710,44.794227,-1.451649,-7.109918,-0.154635,5.898446,0,0.003493993,0
1786467943.095340,0.018110,0.048370,-0.104580,-0.115967,0.016113,-0.979980,0.998122,0.008565,0.060106,-0.008117,-0.926531,0.004890,-0.376108,0.007671,0.930453,6.899326,-0.875801,-1.185045,44.176971,-1.429682,-7.030388,-0.148463,5.973968,0,0.003466239,0
1786467943.116226,0.008922,0.064083,-0.102316,-0.114502,0.014893,-0.988770,0.998078,0.008627,0.060755,-0.008628,-0.928401,0.004509,-0.371469,0.007815,0.933585,6.974403,-0.933635,-1.121906,43.604371,-1.413413,-6.956012,-0.144078,6.036486,0,0.003503553,0
1786467943.135389,-0.005725,0.070741,-0.100186,-0.112305,0.014404,-0.991699,0.998032,0.008618,0.061438,-0.009123,-0.930160,0.004297,-0.367047,0.007821,0.928399,7.053274,-0.990183,-1.077245,43.059508,-1.388546,-6.883295,-0.138350,6.101200,0,0.003458061,0
1786467943.155999,-0.021438,0.071273,-0.097789,-0.107910,0.015137,-0.993896,0.997986,0.008532,0.062124,-0.009601,-0.931773,0.004399,-0.362930,0.007823,0.914522,7.132391,-1.045328,-1.079381,42.552704,-1.382372,-6.812040,-0.135879,6.161988,0,0.003485618,0
1786467943.175593,-0.035686,0.063151,-0.095392,-0.106445,0.015137,-1.002197,0.997942,0.008376,0.062771,-0.010062,-0.933351,0.004561,-0.358852,0.007734,0.892553,7.206819,-1.099183,-1.085303,42.051591,-1.366666,-6.745766,-0.137844,6.213877,0,0.003462980,0
1786467943.195403,-0.038349,0.048636,-0.092995,-0.104248,0.017578,-1.007324,0.997903,0.008209,0.063344,-0.010512,-0.934902,0.004972,-0.354788,0.007644,0.869472,7.272844,-1.151758,-1.127224,41.552663,-1.364630,-6.678751,-0.137531,6.268298,0,0.003455120,0
1786467943.216175,-0.031824,0.031459,-0.091264,-0.103516,0.018799,-1.006348,0.997868,0.008075,0.063831,-0.010955,-0.936479,0.005360,-0.350600,0.007608,0.850253,7.328983,-1.203484,-1.167880,41.039423,-1.368106,-6.612558,-0.142543,6.328370,0,0.003490305,0
1786467943.235696,-0.014514,0.008423,-0.088867,-0.103027,0.019531,-1.006348,0.997840,0.008027,0.064202,-0.011392,-0.938100,0.005559,-0.346237,0.007580,0.841064,7.371890,-1.254022,-1.181485,40.505804,-1.361812,-6.542851,-0.144517,6.389934,0,0.003463368,0
1786467943.255997,0.001199,-0.010885,-0.086470,-0.103760,0.019043,-1.007324,0.997817,0.008056,0.064476,-0.011823,-0.939767,0.005543,-0.341685,0.007618,0.840854,7.403732,-1.303356,-1.167841,39.950455,-1.353357,-6.471622,-0.145754,6.451467,0,0.003476413,0
1786467943.275292,0.015047,-0.027131,-0.083940,-0.104248,0.018555,-1.004395,0.997798,0.008153,0.064668,-0.012247,-0.941454,0.005404,-0.337012,0.007647,0.848644,7.426261,-1.351375,-1.136354,39.381356,-1.337432,-6.397201,-0.142625,6.518072,0,0.003443340,0
1786467943.295857,0.021838,-0.038316,-0.081410,-0.106445,0.016846,-0.998047,0.997783,0.008282,0.064804,-0.012661,-0.943197,0.005089,-0.332106,0.007725,0.860199,7.442406,-1.398067,-1.082890,38.785366,-1.319681,-6.322266,-0.140314,6.588455,0,0.003472536,0
1786467943.315468,0.020241,-0.043509,-0.078747,-0.108643,0.015625,-0.993652,0.997770,0.008401,0.064914,-0.013062,-0.944947,0.004750,-0.327099,0.007741,0.870809,7.455589,-1.443298,-1.023459,38.178087,-1.292859,-6.244734,-0.135103,6.657586,0,0.003453827,0
1786467943.335864,0.011319,-0.043376,-0.075019,-0.110840,0.014648,-0.993408,0.997757,0.008476,0.065025,-0.013441,-0.946698,0.004450,-0.321999,0.007730,0.876382,7.468845,-1.486404,-0.968871,37.560783,-1.265107,-6.165409,-0.130454,6.722561,0,0.003473272,0
1786467943.355837,0.000666,-0.038582,-0.072489,-0.112793,0.014648,-0.986572,0.997743,0.008498,0.065162,-0.013804,-0.948430,0.004318,-0.316864,0.007661,0.875986,7.484831,-1.528015,-0.935287,36.940195,-1.238003,-6.084985,-0.125388,6.793393,0,0.003469846,0
1786467943.375787,-0.014514,-0.026864,-0.068361,-0.113770,0.013672,-0.982666,0.997726,0.008444,0.065357,-0.014141,-0.950105,0.004213,-0.311810,0.007528,0.867001,7.507514,-1.567166,-0.903240,36.330487,-1.204250,-6.003553,-0.124727,6.859914,0,0.003466297,0
1786467943.396071,-0.026498,-0.012217,-0.064632,-0.116211,0.014893,-0.980469,0.997705,0.008334,0.065627,-0.014455,-0.951738,0.004392,-0.306793,0.007355,0.851541,7.538532,-1.604021,-0.908540,35.725857,-1.178395,-5.924769,-0.121643,6.922522,0,0.003477868,0
1786467943.415366,-0.031425,0.007091,-0.060371,-0.116211,0.015869,-0.982422,0.997677,0.008204,0.065992,-0.014745,-0.953260,0.004683,-0.302029,0.007139,0.833698,7.580550,-1.638233,-0.927902,35.152720,-1.152121,-5.844283,-0.121851,6.979156,0,0.003444446,0
1786467943.435366,-0.028628,0.024668,-0.056243,-0.115967,0.017334,-0.982666,0.997644,0.008091,0.066445,-0.015014,-0.954686,0.005087,-0.297491,0.006939,0.817952,7.632569,-1.669889,-0.963601,34.607383,-1.133110,-5.766936,-0.123314,7.033837,0,0.003449279,0
1786467943.455384,-0.017709,0.040247,-0.051716,-0.114258,0.018311,-0.981445,0.997606,0.008037,0.066974,-0.015264,-0.956005,0.005431,-0.293221,0.006758,0.808925,7.693453,-1.698784,-0.992736,34.095112,-1.114405,-5.691043,-0.125916,7.086875,0,0.003453664,0
1786467943.476699,-0.002796,0.052365,-0.047854,-0.112793,0.018555,-0.987061,0.997562,0.008059,0.067563,-0.015499,-0.957225,0.005589,-0.289214,0.006630,0.808723,7.761247,-1.725345,-1.000045,33.615184,-1.095794,-5.619526,-0.128253,7.129273,0,0.003512464,0
1786467943.495415,0.012517,0.058756,-0.043727,-0.111084,0.017822,-0.993164,0.997516,0.008159,0.068182,-0.015718,-0.958374,0.005474,-0.285391,0.006478,0.817456,7.832690,-1.749479,-0.971191,33.158071,-1.063653,-5.549434,-0.127496,7.169314,0,0.003445715,0
1786467943.515375,0.023037,0.059156,-0.040131,-0.109375,0.017334,-0.995117,0.997469,0.008311,0.068802,-0.015922,-0.959460,0.005255,-0.281724,0.006366,0.832401,7.904348,-1.771529,-0.931052,32.720389,-1.033675,-5.483162,-0.122762,7.210262,0,0.003448518,0
1786467943.535423,0.025966,0.054096,-0.035870,-0.105713,0.016357,-0.997803,0.997423,0.008479,0.069396,-0.016107,-0.960487,0.004973,-0.278210,0.006243,0.849262,7.973088,-1.791155,-0.883008,32.301339,-1.000523,-5.416120,-0.117654,7.249008,0,0.003454379,0
1786467943.555403,0.021838,0.042511,-0.032541,-0.104736,0.015381,-1.003418,0.997382,0.008625,0.069933,-0.016274,-0.961507,0.004708,-0.274671,0.006093,0.863893,8.035181,-1.808958,-0.836709,31.879787,-0.965113,-5.353110,-0.112448,7.283286,0,0.003455905,0
1786467943.575660,0.010254,0.027065,-0.029212,-0.103271,0.014648,-1.006592,0.997346,0.008713,0.070394,-0.016422,-0.962528,0.004546,-0.271080,0.005904,0.872074,8.088406,-1.824971,-0.802820,31.452441,-0.928963,-5.288378,-0.108409,7.320025,0,0.003468902,0
1786467943.595399,-0.003195,0.009488,-0.025617,-0.102539,0.014160,-1.005859,0.997317,0.008734,0.070768,-0.016547,-0.963565,0.004496,-0.267378,0.005664,0.872759,8.131537,-1.839064,-0.781718,31.012233,-0.890405,-5.222611,-0.106204,7.360983,0,0.003456563,0
1786467943.615740,-0.016245,-0.008488,-0.021889,-0.102783,0.014160,-1.004395,0.997296,0.008689,0.071054,-0.016650,-0.964629,0.004570,-0.263515,0.005385,0.866217,8.164339,-1.851162,-0.775405,30.553308,-0.851494,-5.155449,-0.105613,7.403293,0,0.003472995,0
1786467943.635425,-0.023702,-0.025133,-0.018293,-0.103271,0.015381,-1.004639,0.997280,0.008608,0.071257,-0.016733,-0.965710,0.004820,-0.259528,0.005079,0.855804,8.187557,-1.861303,-0.791003,30.079997,-0.815236,-5.085602,-0.104842,7.444828,0,0.003457346,0
1786467943.655389,-0.023568,-0.038582,-0.014964,-0.105469,0.016357,-1.002686,0.997270,0.008528,0.071392,-0.016800,-0.966822,0.005129,-0.255357,0.004773,0.845786,8.203029,-1.869621,-0.813999,29.585360,-0.780617,-5.015288,-0.106541,7.488991,0,0.003457493,0
1786467943.675344,-0.016378,-0.047637,-0.010570,-0.107178,0.017090,-0.997314,0.997264,0.008485,0.071482,-0.016848,-0.967948,0.005418,-0.251054,0.004471,0.840296,8.213268,-1.875458,-0.834742,29.075715,-0.745737,-4.941788,-0.108125,7.537321,0,0.003457188,0
1786467943.695467,-0.003728,-0.050833,-0.005777,-0.109131,0.018311,-0.993408,0.997258,0.008508,0.071554,-0.016877,-0.969076,0.005728,-0.246659,0.004182,0.842601,8.221613,-1.878521,-0.858747,28.555793,-0.713006,-4.866954,-0.107844,7.584266,0,0.003464141,0
1786467943.715702,0.011852,-0.047237,-0.001249,-0.111084,0.018311,-0.991943,0.997250,0.008611,0.071642,-0.016888,-0.970189,0.005882,-0.242246,0.003912,0.854206,8.231978,-1.878934,-0.863922,28.034483,-0.677726,-4.791561,-0.108731,7.628235,0,0.003474136,0
1786467943.735492,0.020374,-0.041379,0.002479,-0.112793,0.017334,-0.988281,0.997241,0.008757,0.071759,-0.016884,-0.971274,0.005848,-0.237862,0.003650,0.870868,8.245685,-1.877162,-0.846173,27.517288,-0.637824,-4.715972,-0.109278,7.673488,0,0.003462710,0
1786467943.757381,0.024768,-0.036052,0.004610,-0.112793,0.017334,-0.988281,0.997229,0.008926,0.071902,-0.016871,-0.972334,0.005803,-0.233497,0.003399,0.890270,8.262418,-1.874109,-0.827748,27.002863,-0.599345,-4.637962,-0.105735,7.714591,0,0.003543999,0
1786467943.775504,0.026765,-0.032856,0.006208,-0.113770,0.016602,-0.984131,0.997216,0.009105,0.072061,-0.016850,-0.973342,0.005726,-0.229264,0.003160,0.910872,8.280976,-1.870119,-0.806509,26.504510,-0.561975,-4.562360,-0.104690,7.758174,0,0.003443928,0
1786467943.795453,0.028097,-0.026199,0.008205,-0.114258,0.016113,-0.982666,0.997201,0.009292,0.072253,-0.016820,-0.974319,0.005604,-0.225083,0.002924,0.932371,8.303334,-1.864921,-0.780111,26.012869,-0.524151,-4.487377,-0.101622,7.797718,0,0.003446704,0
1786467943.815381,0.025434,-0.011551,0.013265,-0.115234,0.015137,-0.982178,0.997181,0.009468,0.072518,-0.016762,-0.975244,0.005416,-0.221048,0.002656,0.952657,8.334048,-1.856678,-0.745400,25.538806,-0.481002,-4.415554,-0.099212,7.834167,0,0.003447918,0
1786467943.835450,0.019708,0.000833,0.016061,-0.114990,0.014160,-0.983154,0.997157,0.009616,0.072845,-0.016689,-0.976112,0.005210,-0.217191,0.002370,0.969811,8.371840,-1.846711,-0.708597,25.086177,-0.435850,-4.344414,-0.096132,7.867484,0,0.003454848,0
1786467943.855350,0.007457,0.015214,0.021521,-0.114502,0.014160,-0.983887,0.997129,0.009706,0.073245,-0.016583,-0.976917,0.005164,-0.213546,0.002032,0.980474,8.417811,-1.833433,-0.690857,24.658755,-0.389320,-4.276303,-0.092647,7.898781,0,0.003452834,0
1786467943.875604,-0.005059,0.027731,0.026048,-0.114014,0.013916,-0.985107,0.997097,0.009737,0.073707,-0.016450,-0.977665,0.005215,-0.210096,0.001648,0.984379,8.470906,-1.817405,-0.684285,24.254509,-0.340155,-4.211545,-0.092296,7.927383,0,0.003466457,0
1786467943.896050,-0.014381,0.035986,0.029910,-0.112061,0.014160,-0.987549,0.997062,0.009724,0.074212,-0.016293,-0.978356,0.005378,-0.206856,0.001233,0.983385,8.528684,-1.799041,-0.691311,23.875102,-0.290625,-4.147970,-0.092680,7.952999,0,0.003484942,0
1786467943.915567,-0.018242,0.038783,0.033638,-0.110596,0.015869,-0.993408,0.997026,0.009696,0.074730,-0.016116,-0.979004,0.005745,-0.203757,0.000821,0.980786,8.587996,-1.778443,-0.723778,23.512426,-0.246749,-4.087285,-0.092757,7.973616,0,0.003459156,0
1786467943.935879,-0.014913,0.036519,0.037766,-0.107666,0.017822,-0.997559,0.996992,0.009688,0.075236,-0.015919,-0.979612,0.006233,-0.200803,0.000391,0.980779,8.645933,-1.755422,-0.770824,23.166995,-0.203687,-4.027358,-0.095381,7.994446,0,0.003473709,0
1786467943.955902,-0.005592,0.029462,0.041495,-0.106201,0.018066,-0.999512,0.996959,0.009728,0.075706,-0.015708,-0.980207,0.006544,-0.197869,-0.000024,0.986478,8.699787,-1.730295,-0.796905,22.824251,-0.158037,-3.970296,-0.101022,8.016385,0,0.003472321,0
1786467943.978346,0.003330,0.020540,0.043625,-0.104980,0.018311,-1.003174,0.996929,0.009813,0.076131,-0.015490,-0.980796,0.006734,-0.194922,-0.000464,0.997530,8.748499,-1.704003,-0.807860,22.480124,-0.106305,-3.913996,-0.103060,8.036034,0,0.003575239,0
1786467944.002472,0.016912,0.007224,0.046288,-0.104492,0.018555,-1.005615,0.996904,0.009966,0.076487,-0.015264,-0.981403,0.006801,-0.191837,-0.000911,1.016652,8.789544,-1.676282,-0.804027,22.120211,-0.050818,-3.856598,-0.101395,8.057229,0,0.003727248,0
1786467944.017272,0.026366,-0.008089,0.049085,-0.104248,0.017578,-1.005127,0.996884,0.010165,0.076767,-0.015029,-0.981998,0.006777,-0.188765,-0.001157,1.041346,8.821789,-1.647103,-0.794191,21.761798,-0.017669,-3.796548,-0.103661,8.082063,0,0.003436624,0
1786467944.038472,0.029029,-0.023935,0.052280,-0.104004,0.017090,-1.003418,0.996870,0.010377,0.076968,-0.014780,-0.982615,0.006643,-0.185528,-0.001547,1.067848,8.844909,-1.616236,-0.767976,21.384501,0.035421,-3.735668,-0.099371,8.108089,0,0.003494541,0
1786467944.057246,0.025167,-0.039514,0.054944,-0.105225,0.015625,-1.002197,0.996862,0.010569,0.077091,-0.014517,-0.983238,0.006454,-0.182203,-0.001895,1.092200,8.859083,-1.584023,-0.736518,20.997149,0.084417,-3.674304,-0.098538,8.133941,0,0.003434781,0
1786467944.076063,0.015314,-0.049235,0.058139,-0.106934,0.015381,-0.999756,0.996859,0.010712,0.077166,-0.014235,-0.983865,0.006367,-0.178786,-0.002272,1.111166,8.867642,-1.550076,-0.717187,20.599353,0.134286,-3.612140,-0.095663,8.161132,0,0.003391813,0
1786467944.095485,0.003196,-0.054295,0.061069,-0.107910,0.015381,-0.995361,0.996858,0.010796,0.077217,-0.013934,-0.984489,0.006390,-0.175307,-0.002692,1.123454,8.873259,-1.514495,-0.710471,20.194613,0.186803,-3.548019,-0.094855,8.190291,0,0.003385034,0
1786467944.115884,-0.008255,-0.054961,0.064664,-0.110352,0.014404,-0.991211,0.996859,0.010822,0.077265,-0.013611,-0.985118,0.006366,-0.171731,-0.003170,1.129325,8.878470,-1.476871,-0.697439,19.778883,0.247184,-3.484742,-0.096972,8.218933,0,0.003421243,0
1786467944.136030,-0.013448,-0.050300,0.067194,-0.112061,0.015869,-0.988525,0.996858,0.010825,0.077336,-0.013273,-0.985729,0.006586,-0.168171,-0.003648,1.132640,8.886293,-1.437701,-0.714033,19.365354,0.302212,-3.420571,-0.094693,8.245628,0,0.003437924,0
1786467944.155456,-0.013315,-0.040846,0.070390,-0.114258,0.017090,-0.986328,0.996853,0.010832,0.077454,-0.012919,-0.986314,0.006916,-0.164681,-0.004106,1.136481,8.899472,-1.396548,-0.744583,18.960171,0.352700,-3.358187,-0.096343,8.270738,0,0.003419997,0
1786467944.175333,-0.007589,-0.027796,0.073319,-0.114258,0.017822,-0.983643,0.996843,0.010871,0.077637,-0.012551,-0.986863,0.007236,-0.161334,-0.004575,1.144020,8.920072,-1.353526,-0.774051,18.571961,0.404678,-3.295020,-0.099558,8.295221,0,0.003425560,0
1786467944.195873,0.003596,-0.013815,0.075849,-0.114990,0.018555,-0.982910,0.996827,0.010968,0.077888,-0.012175,-0.987379,0.007503,-0.158119,-0.005050,1.158348,8.948628,-1.308853,-0.797313,18.199260,0.458373,-3.235378,-0.101504,8.316201,0,0.003458021,0
1786467944.215216,0.015846,0.000566,0.078779,-0.114990,0.018555,-0.983887,0.996805,0.011128,0.078210,-0.011788,-0.987853,0.007625,-0.155107,-0.005471,1.180035,8.985370,-1.262301,-0.804706,17.850209,0.508211,-3.177494,-0.103603,8.334144,0,0.003431540,0
1786467944.235237,0.025966,0.014148,0.081309,-0.114746,0.017822,-0.986084,0.996777,0.011340,0.078599,-0.011391,-0.988290,0.007543,-0.152288,-0.005906,1.207741,9.029853,-1.214118,-0.787802,17.523615,0.563360,-3.122812,-0.103668,8.349396,0,0.003440415,0
1786467944.255399,0.030494,0.023869,0.083439,-0.113281,0.016846,-0.987793,0.996744,0.011575,0.079036,-0.010985,-0.988690,0.007333,-0.149659,-0.006342,1.238230,9.079864,-1.164574,-0.755967,17.219084,0.620641,-3.069736,-0.101248,8.364036,0,0.003453140,0
1786467944.275342,0.028763,0.030261,0.084904,-0.111572,0.015625,-0.990723,0.996709,0.011802,0.079505,-0.010572,-0.989059,0.007057,-0.147194,-0.006771,1.267837,9.133507,-1.114094,-0.716648,16.933547,0.677822,-3.019250,-0.097943,8.376430,0,0.003453412,0
1786467944.296714,0.022904,0.031459,0.086236,-0.110107,0.015137,-0.994873,0.996673,0.012001,0.079980,-0.010149,-0.989406,0.006843,-0.144833,-0.007258,1.294284,9.187793,-1.062803,-0.684098,16.660324,0.740466,-2.971632,-0.092572,8.386661,0,0.003514698,0
1786467944.315464,0.012251,0.029595,0.087567,-0.108643,0.014893,-0.996338,0.996638,0.012147,0.080446,-0.009715,-0.989740,0.006788,-0.142515,-0.007655,1.314852,9.240967,-1.010737,-0.672175,16.392065,0.789447,-2.924228,-0.090634,8.399354,0,0.003448765,0
1786467944.335348,0.000666,0.022670,0.088766,-0.106689,0.015381,-0.999023,0.996606,0.012237,0.080878,-0.009271,-0.990061,0.006905,-0.140237,-0.008112,1.329080,9.290123,-0.958029,-0.679821,16.128800,0.842593,-2.877322,-0.090015,8.410319,0,0.003447604,0
1786467944.355258,-0.008122,0.012550,0.089431,-0.106201,0.015381,-1.000977,0.996578,0.012283,0.081260,-0.008821,-0.990383,0.007065,-0.137905,-0.008573,1.338386,9.333460,-0.905053,-0.692760,15.859483,0.895429,-2.831744,-0.093073,8.421732,0,0.003447832,0
1786467944.375169,-0.012916,-0.001964,0.090230,-0.105713,0.017090,-1.002930,0.996557,0.012307,0.081569,-0.008366,-0.990712,0.007431,-0.135476,-0.009033,1.345278,9.368427,-0.851760,-0.730284,15.579205,0.944881,-2.784215,-0.094622,8.433351,0,0.003448068,0
1786467944.395125,-0.008122,-0.019008,0.090230,-0.106201,0.018311,-1.003174,0.996541,0.012356,0.081793,-0.007914,-0.991054,0.007816,-0.132898,-0.009474,1.355068,9.393600,-0.798666,-0.770665,15.281755,0.991979,-2.735209,-0.098962,8.446818,0,0.003450105,0
1786467944.415096,0.001332,-0.030859,0.090896,-0.106445,0.018799,-1.001221,0.996530,0.012452,0.081957,-0.007463,-0.991402,0.008105,-0.130227,-0.009896,1.370419,9.411949,-0.745329,-0.800350,14.973700,1.038615,-2.683933,-0.103531,8.462618,0,0.003452336,0
1786467944.435082,0.012784,-0.040180,0.090763,-0.107422,0.019043,-0.999268,0.996522,0.012605,0.082075,-0.007018,-0.991754,0.008291,-0.127470,-0.010291,1.392376,9.424933,-0.692189,-0.818542,14.655568,1.083751,-2.632050,-0.106182,8.478457,0,0.003454641,0
1786467944.455116,0.023037,-0.045773,0.090630,-0.109619,0.018555,-0.996094,0.996515,0.012809,0.082164,-0.006578,-0.992112,0.008321,-0.124623,-0.010661,1.420147,9.434698,-0.639219,-0.819298,14.327089,1.128396,-2.580377,-0.107865,8.495531,0,0.003458411,0
1786467944.475281,0.028896,-0.046172,0.091163,-0.111572,0.018066,-0.992432,0.996507,0.013042,0.082251,-0.006138,-0.992467,0.008264,-0.121738,-0.011024,1.451297,9.444204,-0.585962,-0.810151,13.994230,1.173338,-2.527698,-0.107490,8.513116,0,0.003466852,0
1786467944.495283,0.028896,-0.042177,0.091029,-0.113037,0.017334,-0.988770,0.996498,0.013275,0.082358,-0.005699,-0.992810,0.008145,-0.118878,-0.011368,1.482384,9.455980,-0.532747,-0.794326,13.664258,1.216891,-2.474820,-0.107113,8.530482,0,0.003466254,0
1786467944.515314,0.022771,-0.033655,0.090630,-0.114014,0.016846,-0.986572,0.996485,0.013477,0.082507,-0.005259,-0.993136,0.008040,-0.116097,-0.011708,1.509917,9.472622,-0.479652,-0.780330,13.343548,1.259549,-2.422732,-0.106546,8.545917,0,0.003467050,0
1786467944.535228,0.013450,-0.022337,0.090230,-0.115723,0.015869,-0.984375,0.996468,0.013631,0.082714,-0.004817,-0.993444,0.007904,-0.113406,-0.012039,1.531986,9.495748,-0.426642,-0.763011,13.033225,1.301489,-2.373415,-0.107424,8.560619,0,0.003462640,0
1786467944.555730,0.002797,-0.008755,0.090497,-0.116455,0.016602,-0.982422,0.996446,0.013733,0.082988,-0.004367,-0.993729,0.007977,-0.110841,-0.012400,1.548150,9.526613,-0.373247,-0.769804,12.737761,1.343909,-2.325052,-0.106012,8.574356,0,0.003484433,0
1786467944.575495,-0.005725,0.004694,0.089831,-0.116699,0.016602,-0.983154,0.996419,0.013794,0.083329,-0.003917,-0.993988,0.008098,-0.108441,-0.012724,1.559456,9.565176,-0.320018,-0.782717,12.461533,1.381342,-2.278626,-0.109188,8.584476,0,0.003469365,0
1786467944.595436,-0.008921,0.017877,0.089565,-0.115723,0.017578,-0.985107,0.996386,0.013840,0.083736,-0.003466,-0.994220,0.008341,-0.106237,-0.013051,1.569149,9.611257,-0.266695,-0.809679,12.208157,1.417588,-2.233959,-0.111152,8.592323,0,0.003465567,0
1786467944.616241,-0.006657,0.029062,0.088766,-0.114502,0.019287,-0.988037,0.996348,0.013899,0.084198,-0.003019,-0.994426,0.008720,-0.104218,-0.013398,1.580402,9.663706,-0.213600,-0.852287,11.976290,1.454416,-2.192652,-0.113643,8.598045,0,0.003499618,0
1786467944.635665,0.000400,0.036918,0.087434,-0.113770,0.019287,-0.990479,0.996305,0.013993,0.084699,-0.002581,-0.994617,0.008935,-0.102322,-0.013663,1.595659,9.720661,-0.161129,-0.876628,11.758438,1.483765,-2.154100,-0.119923,8.603460,0,0.003466208,0
1786467944.655517,0.014382,0.039182,0.085703,-0.111572,0.019531,-0.994141,0.996260,0.014157,0.085212,-0.002157,-0.994794,0.009000,-0.100553,-0.013916,1.618891,9.778913,-0.109591,-0.883587,11.555100,1.513531,-2.116029,-0.121409,8.607027,0,0.003459409,0
1786467944.675568,0.023836,0.035986,0.083972,-0.109863,0.018799,-0.998047,0.996215,0.014367,0.085708,-0.001746,-0.994964,0.008874,-0.098835,-0.014152,1.647373,9.835349,-0.059092,-0.868485,11.357181,1.543451,-2.079830,-0.121738,8.610094,0,0.003462748,0
1786467944.695225,0.027697,0.031459,0.082374,-0.108398,0.018311,-0.999268,0.996172,0.014595,0.086182,-0.001345,-0.995130,0.008702,-0.097128,-0.014356,1.677954,9.889193,-0.009571,-0.848594,11.160600,1.570063,-2.044306,-0.119338,8.615799,0,0.003448434,0
1786467944.715299,0.029029,0.021872,0.080377,-0.107666,0.018066,-1.000488,0.996132,0.014829,0.086608,-0.000956,-0.995299,0.008544,-0.095369,-0.014555,1.709155,9.937549,0.038653,-0.830533,10.957991,1.596030,-2.009062,-0.115971,8.621550,0,0.003455437,0
1786467944.735433,0.024102,0.010553,0.078246,-0.107178,0.018066,-1.001709,0.996097,0.015039,0.086978,-0.000576,-0.995472,0.008479,-0.093527,-0.014743,1.737397,9.979423,0.085471,-0.823708,10.746038,1.619474,-1.972530,-0.113993,8.627572,0,0.003463281,0
1786467944.755345,0.015980,-0.001431,0.075849,-0.106934,0.016846,-1.002197,0.996067,0.015206,0.087289,-0.000205,-0.995650,0.008350,-0.091595,-0.014909,1.760640,10.014472,0.130675,-0.809802,10.523663,1.641164,-1.934444,-0.115874,8.634540,0,0.003459762,0
1786467944.775303,0.004794,-0.013016,0.073319,-0.107910,0.018066,-1.000000,0.996043,0.015317,0.087541,0.000157,-0.995833,0.008496,-0.089538,-0.015063,1.777385,10.042885,0.174236,-0.828297,10.287350,1.658569,-1.895819,-0.114689,8.644411,0,0.003459003,0
1786467944.795306,-0.003861,-0.022736,0.070789,-0.108887,0.017334,-0.998535,0.996024,0.015384,0.087746,0.000509,-0.996022,0.008566,-0.087384,-0.015203,1.788806,10.065781,0.216135,-0.838324,10.039811,1.675277,-1.855120,-0.120491,8.653614,0,0.003460413,0
1786467944.816658,-0.008255,-0.029128,0.068925,-0.110596,0.017578,-0.996582,0.996008,0.015428,0.087919,0.000854,-0.996215,0.008677,-0.085114,-0.015370,1.797520,10.085041,0.256837,-0.853071,9.779093,1.694843,-1.813485,-0.123009,8.663353,0,0.003519137,0
1786467944.836740,-0.006391,-0.031259,0.065863,-0.112305,0.018555,-0.993896,0.995992,0.015481,0.088081,0.001182,-0.996405,0.008871,-0.082821,-0.015463,1.807096,10.103109,0.295738,-0.878255,9.515844,1.705129,-1.771218,-0.124472,8.673632,0,0.003509059,0
1786467944.855757,-0.001331,-0.028729,0.063865,-0.114014,0.019775,-0.990234,0.995975,0.015559,0.088256,0.001498,-0.996588,0.009139,-0.080556,-0.015506,1.819524,10.122630,0.333549,-0.912420,9.255972,1.708886,-1.729376,-0.126810,8.684546,0,0.003455924,0
1786467944.875469,0.009854,-0.020872,0.060936,-0.114990,0.019775,-0.988525,0.995954,0.015692,0.088471,0.001796,-0.996761,0.009260,-0.078360,-0.015538,1.838102,10.146691,0.369804,-0.929603,9.003847,1.712921,-1.687963,-0.130576,8.693033,0,0.003445688,0
1786467944.895398,0.020241,-0.010486,0.058672,-0.116455,0.019775,-0.986328,0.995926,0.015875,0.088737,0.002078,-0.996924,0.009273,-0.076251,-0.015549,1.862445,10.176728,0.404939,-0.934449,8.761440,1.715561,-1.648924,-0.131661,8.701578,0,0.003447197,0
1786467944.915107,0.025833,0.002031,0.056675,-0.116943,0.018555,-0.984375,0.995893,0.016083,0.089066,0.002349,-0.997075,0.009083,-0.074279,-0.015537,1.889713,10.213977,0.439131,-0.915727,8.534603,1.717204,-1.610902,-0.132974,8.709488,0,0.003438987,0
1786467944.935196,0.028230,0.014947,0.054145,-0.116699,0.018066,-0.984131,0.995854,0.016303,0.089460,0.002606,-0.997211,0.008851,-0.072467,-0.015516,1.918138,10.258660,0.472106,-0.892049,8.325946,1.717926,-1.574794,-0.130007,8.715234,0,0.003448900,0
1786467944.955156,0.023436,0.027864,0.051748,-0.116211,0.017334,-0.985840,0.995808,0.016496,0.089918,0.002855,-0.997332,0.008616,-0.070823,-0.015480,1.943600,10.310778,0.503944,-0.867841,8.136701,1.716783,-1.541359,-0.127950,8.718540,0,0.003450942,0
1786467944.975312,0.015047,0.037318,0.049484,-0.115479,0.017334,-0.988525,0.995760,0.016648,0.090423,0.003098,-0.997439,0.008504,-0.069321,-0.015441,1.964143,10.368332,0.534680,-0.857690,7.963938,1.714133,-1.510351,-0.125572,8.720401,0,0.003460811,0
1786467944.995216,0.004927,0.042245,0.046688,-0.113770,0.017578,-0.989746,0.995709,0.016748,0.090952,0.003331,-0.997535,0.008540,-0.067925,-0.015387,1.978751,10.428737,0.563921,-0.864441,7.803569,1.708473,-1.480175,-0.125688,8.723358,0,0.003457542,0
1786467945.015317,-0.002263,0.044508,0.044424,-0.112305,0.017578,-0.992188,0.995657,0.016812,0.091493,0.003556,-0.997624,0.008621,-0.066611,-0.015330,1.989093,10.490468,0.591917,-0.876414,7.652768,1.702084,-1.452037,-0.128274,8.724685,0,0.003463453,0
1786467945.035459,-0.008122,0.043044,0.041894,-0.111084,0.018799,-0.995850,0.995607,0.016847,0.092026,0.003772,-0.997707,0.008877,-0.065330,-0.015262,1.996023,10.551375,0.618459,-0.908489,7.506109,1.693196,-1.425054,-0.130306,8.724570,0,0.003469693,0
1786467945.055375,-0.009454,0.037717,0.038698,-0.110107,0.018555,-0.998779,0.995559,0.016875,0.092533,0.003972,-0.997791,0.009030,-0.064037,-0.015170,2.001836,10.609298,0.643042,-0.928794,7.357782,1.682338,-1.398242,-0.136399,8.725040,0,0.003464732,0
1786467945.075198,-0.004260,0.029062,0.035902,-0.108887,0.019775,-1.000732,0.995514,0.016928,0.092997,0.004155,-0.997876,0.009241,-0.062701,-0.015057,2.010476,10.662289,0.665863,-0.956119,7.204648,1.668802,-1.370343,-0.137825,8.726514,0,0.003457021,0
1786467945.095196,0.004262,0.017477,0.032174,-0.108398,0.020752,-1.001709,0.995473,0.017023,0.093404,0.004314,-0.997965,0.009443,-0.061278,-0.014917,2.023692,10.708696,0.686311,-0.982550,7.041517,1.652286,-1.341850,-0.140050,8.729028,0,0.003458680,0
1786467945.115719,0.013450,0.005227,0.028978,-0.108154,0.019531,-1.003174,0.995438,0.017161,0.093750,0.004452,-0.998060,0.009356,-0.059761,-0.014758,2.041656,10.748174,0.704631,-0.975982,6.867048,1.635738,-1.311656,-0.144037,8.731215,0,0.003482340,0
1786467945.135379,0.021439,-0.006757,0.025782,-0.108643,0.020020,-1.001221,0.995407,0.017339,0.094037,0.004570,-0.998159,0.009309,-0.058132,-0.014564,2.063893,10.780834,0.720861,-0.974458,6.679858,1.614969,-1.280181,-0.141140,8.737067,0,0.003463315,0
1786467945.155865,0.024635,-0.016078,0.022320,-0.109375,0.018799,-0.999268,0.995381,0.017530,0.094279,0.004668,-0.998263,0.009098,-0.056408,-0.014354,2.087431,10.808245,0.734858,-0.954096,6.481384,1.593516,-1.247151,-0.141359,8.743038,0,0.003484270,0
1786467945.176214,0.021972,-0.022603,0.019790,-0.111084,0.018066,-0.996094,0.995357,0.017706,0.094488,0.004753,-0.998369,0.008876,-0.054598,-0.014128,2.109059,10.831982,0.747224,-0.932735,6.273129,1.570353,-1.213779,-0.139303,8.750317,0,0.003494189,0
1786467945.196953,0.017711,-0.025533,0.017659,-0.111328,0.017822,-0.994629,0.995336,0.017860,0.094682,0.004830,-0.998472,0.008711,-0.052764,-0.013898,2.128005,10.854083,0.758283,-0.917813,6.062272,1.546361,-1.177883,-0.136819,8.755879,0,0.003518421,0
1786467945.215466,0.008656,-0.026199,0.014996,-0.113037,0.016602,-0.992676,0.995315,0.017966,0.094874,0.004898,-0.998572,0.008500,-0.050954,-0.013645,2.141305,10.875884,0.767741,-0.897696,5.854004,1.519800,-1.144130,-0.137747,8.761703,0,0.003441533,0
1786467945.235612,-0.001597,-0.022204,0.013265,-0.113281,0.016846,-0.988037,0.995294,0.018020,0.095085,0.004962,-0.998665,0.008443,-0.049165,-0.013402,2.148593,10.900001,0.776282,-0.895133,5.648478,1.493535,-1.109338,-0.136104,8.770054,0,0.003453267,0
1786467945.255660,-0.009720,-0.014614,0.011135,-0.114990,0.017578,-0.986084,0.995269,0.018034,0.095333,0.005020,-0.998751,0.008549,-0.047432,-0.013150,2.151079,10.928497,0.783757,-0.911140,5.449561,1.465270,-1.077622,-0.136659,8.775374,0,0.003457969,0
1786467945.275827,-0.013049,-0.004094,0.008605,-0.115967,0.018311,-0.986572,0.995240,0.018029,0.095635,0.005068,-0.998829,0.008741,-0.045803,-0.012884,2.151490,10.963057,0.790003,-0.936860,5.262746,1.435002,-1.046813,-0.139403,8.777920,0,0.003466595,0
1786467945.295340,-0.009986,0.006558,0.007539,-0.116455,0.019043,-0.985352,0.995206,0.018040,0.095989,0.005110,-0.998899,0.008951,-0.044291,-0.012615,2.153655,11.003725,0.795880,-0.964407,5.089467,1.404250,-1.017506,-0.142433,8.781863,0,0.003445238,0
1786467945.315684,-0.000932,0.019608,0.004743,-0.114746,0.019531,-0.985596,0.995164,0.018095,0.096408,0.005136,-0.998959,0.009099,-0.042969,-0.012330,2.160843,11.051910,0.800437,-0.984619,4.937741,1.371867,-0.988806,-0.145029,8.783993,0,0.003464545,0
1786467945.335191,0.007857,0.028263,0.002612,-0.114746,0.019287,-0.987793,0.995117,0.018192,0.096871,0.005147,-0.999014,0.009096,-0.041754,-0.012031,2.172831,11.105104,0.803945,-0.987191,4.798127,1.338607,-0.964303,-0.147181,8.783910,0,0.003443425,0
1786467945.355191,0.015580,0.033456,0.000748,-0.113770,0.019775,-0.991211,0.995067,0.018327,0.097360,0.005146,-0.999064,0.009078,-0.040642,-0.011724,2.189140,11.161297,0.806508,-0.988055,4.670266,1.304408,-0.940570,-0.145730,8.782457,0,0.003448517,0
1786467945.375785,0.019175,0.035720,-0.001249,-0.112061,0.018799,-0.993164,0.995015,0.018479,0.097861,0.005133,-0.999110,0.008900,-0.039614,-0.011408,2.207226,11.218844,0.807957,-0.970220,4.551827,1.269856,-0.917645,-0.146148,8.782293,0,0.003477689,0
1786467945.395223,0.018243,0.034388,-0.003513,-0.110840,0.017822,-0.995361,0.994964,0.018624,0.098356,0.005109,-0.999156,0.008655,-0.038601,-0.011087,2.224444,11.275694,0.808053,-0.944771,4.435016,1.234925,-0.895571,-0.144519,8.781848,0,0.003450383,0
1786467945.415464,0.011718,0.028263,-0.006176,-0.109619,0.016846,-0.998535,0.994916,0.018735,0.098820,0.005075,-0.999200,0.008397,-0.037580,-0.010753,2.237525,11.329111,0.806453,-0.917801,4.317284,1.198579,-0.873559,-0.142288,8.780383,0,0.003464028,0
1786467945.435243,0.003063,0.019475,-0.009105,-0.109131,0.017334,-1.000000,0.994873,0.018802,0.099240,0.005029,-0.999245,0.008340,-0.036489,-0.010409,2.245355,11.377548,0.802965,-0.913938,4.191820,1.160174,-0.851237,-0.138913,8.780641,0,0.003454593,0
1786467945.455207,-0.006790,0.009088,-0.010837,-0.107910,0.017578,-1.000488,0.994836,0.018820,0.099608,0.004979,-0.999290,0.008401,-0.035332,-0.010064,2.247346,11.420068,0.798244,-0.923576,4.058988,1.121274,-0.826667,-0.139943,8.781853,0,0.003455397,0
1786467945.475950,-0.014247,-0.002097,-0.013500,-0.107910,0.017334,-1.001953,0.994806,0.018799,0.099921,0.004918,-0.999336,0.008460,-0.034078,-0.009702,2.244658,11.456252,0.791706,-0.933117,3.914932,1.080526,-0.801775,-0.143488,8.782100,0,0.003489283,0
1786467945.495413,-0.017443,-0.013282,-0.016030,-0.108154,0.018555,-1.000000,0.994781,0.018763,0.100179,0.004845,-0.999383,0.008667,-0.032730,-0.009337,2.239906,11.486067,0.783459,-0.959660,3.760249,1.039079,-0.775238,-0.144424,8.785853,0,0.003460143,0
1786467945.515153,-0.013848,-0.024068,-0.018693,-0.108643,0.019531,-0.998291,0.994761,0.018744,0.100382,0.004757,-0.999431,0.008914,-0.031284,-0.008956,2.236936,11.509749,0.773431,-0.990734,3.594336,0.995716,-0.747036,-0.147419,8.789407,0,0.003450058,0
1786467945.535209,-0.007989,-0.029661,-0.020424,-0.109375,0.019775,-0.996338,0.994743,0.018754,0.100559,0.004656,-0.999478,0.009085,-0.029783,-0.008564,2.237094,11.530266,0.762269,-1.013210,3.422036,0.951558,-0.718139,-0.151396,8.793194,0,0.003455894,0
1786467945.555139,0.000533,-0.032057,-0.022022,-0.111572,0.019287,-0.993896,0.994726,0.018804,0.100724,0.004543,-0.999526,0.009094,-0.028240,-0.008165,2.241827,11.549464,0.750099,-1.016830,3.244795,0.907210,-0.690394,-0.154020,8.797458,0,0.003454909,0
1786467945.575262,0.007591,-0.031259,-0.023487,-0.112793,0.019287,-0.991943,0.994708,0.018889,0.100893,0.004419,-0.999572,0.009056,-0.026697,-0.007757,2.250414,11.569155,0.737088,-1.015123,3.067462,0.862072,-0.661405,-0.153224,8.801209,0,0.003462399,0
1786467945.595201,0.011718,-0.027397,-0.025084,-0.114014,0.018799,-0.989502,0.994688,0.018992,0.101081,0.004285,-0.999616,0.008942,-0.025190,-0.007345,2.261118,11.591107,0.723218,-1.004411,2.894242,0.816608,-0.633154,-0.152635,8.805310,0,0.003460250,0
1786467945.615407,0.011186,-0.020206,-0.026150,-0.114990,0.017334,-0.988525,0.994663,0.019091,0.101306,0.004147,-0.999656,0.008668,-0.023754,-0.006929,2.271233,11.617234,0.708852,-0.975217,2.728949,0.771036,-0.605938,-0.152395,8.807775,0,0.003469944,0
1786467945.635540,0.005726,-0.009154,-0.027215,-0.115479,0.016846,-0.986084,0.994634,0.019161,0.101586,0.004007,-0.999691,0.008443,-0.022432,-0.006514,2.278074,11.649726,0.694106,-0.951490,2.576930,0.725288,-0.580424,-0.149042,8.811519,0,0.003474202,0
1786467945.655255,-0.003328,0.000966,-0.028547,-0.115234,0.017090,-0.985840,0.994600,0.019186,0.101916,0.003866,-0.999721,0.008376,-0.021235,-0.006104,2.279642,11.688037,0.678823,-0.945582,2.439263,0.679563,-0.556174,-0.146539,8.812844,0,0.003459573,0
1786467945.675189,-0.012916,0.009621,-0.029345,-0.114990,0.016602,-0.987549,0.994563,0.019161,0.102289,0.003727,-0.999746,0.008333,-0.020150,-0.005695,2.275594,11.731331,0.663264,-0.942261,2.314454,0.633773,-0.534033,-0.147878,8.812003,0,0.003457861,0
1786467945.695167,-0.019307,0.016945,-0.031476,-0.113770,0.016846,-0.989502,0.994523,0.019104,0.102698,0.003582,-0.999767,0.008383,-0.019178,-0.005276,2.267693,11.778859,0.646638,-0.949506,2.202709,0.586501,-0.512805,-0.148288,8.810808,0,0.003458448,0
1786467945.715165,-0.022503,0.021206,-0.032541,-0.113037,0.018311,-0.990479,0.994480,0.019032,0.103129,0.003433,-0.999784,0.008634,-0.018274,-0.004857,2.257999,11.828820,0.629520,-0.979747,2.098873,0.538686,-0.493727,-0.148662,8.810494,0,0.003459752,0
1786467945.735306,-0.020373,0.022537,-0.033607,-0.111816,0.018799,-0.993652,0.994436,0.018971,0.103566,0.003278,-0.999799,0.008858,-0.017424,-0.004433,2.249435,11.879557,0.611820,-1.006619,2.001124,0.490537,-0.474991,-0.152972,8.807914,0,0.003466821,0
1786467945.755739,-0.013715,0.020939,-0.035604,-0.110352,0.019531,-0.996582,0.994393,0.018942,0.103995,0.003110,-0.999813,0.009055,-0.016599,-0.003994,2.244499,11.929409,0.592933,-1.030446,1.906231,0.440590,-0.456515,-0.155625,8.805594,0,0.003484654,0
1786467945.775706,-0.005992,0.015613,-0.036936,-0.109131,0.019531,-0.998291,0.994351,0.018951,0.104398,0.002931,-0.999828,0.009129,-0.015752,-0.003558,2.243776,11.976244,0.573147,-1.040097,1.808766,0.391377,-0.437941,-0.158180,8.804511,0,0.003478192,0
1786467945.795426,0.001865,0.008023,-0.038800,-0.108398,0.019287,-1.000000,0.994312,0.018997,0.104764,0.002738,-0.999843,0.009087,-0.014858,-0.003118,2.247241,12.018783,0.552092,-1.036392,1.705855,0.341866,-0.419029,-0.158577,8.803474,0,0.003462782,0
1786467945.815388,0.006925,-0.001032,-0.040531,-0.108154,0.019287,-1.000488,0.994277,0.019068,0.105085,0.002532,-0.999859,0.009020,-0.013893,-0.002664,2.253333,12.056180,0.529818,-1.029707,1.594737,0.290999,-0.399393,-0.156951,8.803666,0,0.003461477,0
1786467945.835304,0.007457,-0.011551,-0.042395,-0.108154,0.018311,-1.000000,0.994248,0.019140,0.105354,0.002316,-0.999876,0.008846,-0.012840,-0.002203,2.259327,12.087618,0.506189,-1.010692,1.473550,0.239482,-0.378240,-0.156665,8.804791,0,0.003458523,0
1786467945.855374,0.003463,-0.020340,-0.043993,-0.108643,0.017578,-0.999268,0.994223,0.019191,0.105579,0.002093,-0.999893,0.008655,-0.011707,-0.001733,2.262688,12.114080,0.481402,-0.989636,1.343193,0.186972,-0.356122,-0.154924,8.806118,0,0.003462877,0
1786467945.875636,-0.004527,-0.028595,-0.045591,-0.109131,0.016846,-0.997803,0.994204,0.019200,0.105764,0.001866,-0.999908,0.008476,-0.010497,-0.001252,2.261121,12.135869,0.455465,-0.969893,1.204048,0.133324,-0.332466,-0.153686,8.808099,0,0.003474385,0
1786467945.895662,-0.013848,-0.033922,-0.046390,-0.110596,0.017090,-0.995605,0.994188,0.019162,0.105922,0.001639,-0.999922,0.008436,-0.009230,-0.000779,2.254060,12.154626,0.428933,-0.966011,1.058380,0.080333,-0.309025,-0.151962,8.810741,0,0.003472966,0
1786467945.915929,-0.021571,-0.035253,-0.047988,-0.112061,0.017578,-0.993164,0.994174,0.019085,0.106074,0.001408,-0.999932,0.008522,-0.007936,-0.000293,2.242359,12.172651,0.401436,-0.976441,0.909614,0.025786,-0.285136,-0.152449,8.813542,0,0.003482181,0
1786467945.935913,-0.024101,-0.032191,-0.049586,-0.112793,0.017822,-0.990723,0.994158,0.018995,0.106241,0.001171,-0.999940,0.008638,-0.006680,0.000195,2.228999,12.192461,0.373074,-0.990062,0.765237,-0.028940,-0.261107,-0.154416,8.816311,0,0.003477015,0
1786467945.955250,-0.021971,-0.026598,-0.050384,-0.113770,0.018066,-0.989014,0.994139,0.018914,0.106436,0.000929,-0.999946,0.008744,-0.005490,0.000667,2.216758,12.215485,0.344370,-1.002447,0.628446,-0.081963,-0.238699,-0.155875,8.818341,0,0.003445573,0
1786467945.975328,-0.016245,-0.018875,-0.051183,-0.114258,0.018311,-0.987061,0.994115,0.018861,0.106669,0.000682,-0.999951,0.008832,-0.004371,0.001159,2.207716,12.242943,0.315375,-1.012664,0.499648,-0.137288,-0.217158,-0.156696,8.820607,0,0.003453439,0
1786467945.995194,-0.008122,-0.009554,-0.051583,-0.114746,0.018799,-0.987305,0.994086,0.018849,0.106949,0.000429,-0.999953,0.008908,-0.003351,0.001644,2.203333,12.275738,0.286365,-1.021436,0.382352,-0.191807,-0.197510,-0.156261,8.820665,0,0.003450390,0
1786467946.015247,-0.000532,0.000034,-0.052382,-0.114746,0.018066,-0.987061,0.994050,0.018873,0.107276,0.000168,-0.999956,0.008818,-0.002441,0.002135,2.203126,12.314056,0.257082,-1.011124,0.277558,-0.247121,-0.179293,-0.156981,8.821153,0,0.003456020,0
1786467946.035418,0.004128,0.009355,-0.053580,-0.114502,0.017578,-0.988281,0.994009,0.018919,0.107651,-0.000100,-0.999958,0.008654,-0.001643,0.002635,2.205398,12.357748,0.227295,-0.992134,0.185597,-0.303561,-0.162890,-0.154778,8.820141,0,0.003465288,0
1786467946.055255,0.004528,0.017344,-0.054646,-0.113525,0.017578,-0.989502,0.993963,0.018967,0.108064,-0.000372,-0.999958,0.008531,-0.000950,0.003130,2.207789,12.406038,0.197065,-0.977883,0.105820,-0.359635,-0.147606,-0.151459,8.819046,0,0.003458045,0
1786467946.075204,-0.000665,0.021339,-0.054912,-0.111816,0.017090,-0.992188,0.993915,0.018988,0.108498,-0.000643,-0.999958,0.008416,-0.000339,0.003626,2.207135,12.456630,0.166762,-0.964598,0.035375,-0.415803,-0.132989,-0.150480,8.816346,0,0.003457372,0
1786467946.095126,-0.007456,0.021472,-0.055844,-0.110596,0.016846,-0.994141,0.993868,0.018975,0.108933,-0.000915,-0.999957,0.008355,0.000240,0.004124,2.202428,12.507321,0.135910,-0.957304,-0.031486,-0.472306,-0.119697,-0.149724,8.814327,0,0.003455670,0
1786467946.115165,-0.015313,0.019475,-0.056377,-0.109863,0.017090,-0.995117,0.993822,0.018923,0.109358,-0.001185,-0.999954,0.008405,0.000819,0.004624,2.193134,12.556873,0.104701,-0.962677,-0.098298,-0.529090,-0.107153,-0.149734,8.813230,0,0.003459440,0
1786467946.135149,-0.020905,0.014947,-0.057176,-0.109131,0.017578,-0.998535,0.993778,0.018843,0.109760,-0.001456,-0.999949,0.008540,0.001420,0.005125,2.180521,12.603840,0.072926,-0.977823,-0.167724,-0.585897,-0.094097,-0.151236,8.809678,0,0.003459892,0
1786467946.155293,-0.023435,0.007091,-0.058374,-0.108154,0.018066,-0.999268,0.993740,0.018749,0.110123,-0.001733,-0.999944,0.008719,0.002076,0.005637,2.166269,12.646323,0.040277,-0.997765,-0.243540,-0.643847,-0.079705,-0.153897,8.808816,0,0.003467046,0
1786467946.175355,-0.019707,-0.003428,-0.059306,-0.108643,0.018799,-0.999512,0.993706,0.018674,0.110434,-0.002017,-0.999937,0.008909,0.002835,0.006149,2.153985,12.682791,0.006852,-1.018945,-0.331159,-0.701663,-0.065112,-0.155871,8.808525,0,0.003468975,0
1786467946.195240,-0.012516,-0.011018,-0.059706,-0.108398,0.018311,-0.998535,0.993676,0.018634,0.110707,-0.002307,-0.999931,0.008936,0.003654,0.006653,2.145623,12.714931,-0.026993,-1.021169,-0.425500,-0.758635,-0.048346,-0.158547,8.809492,0,0.003462878,0
1786467946.215241,-0.004926,-0.017943,-0.060504,-0.109131,0.018555,-0.997314,0.993648,0.018631,0.110946,-0.002607,-0.999924,0.008940,0.004542,0.007162,2.141444,12.743120,-0.061460,-1.020693,-0.527820,-0.816098,-0.031471,-0.157172,8.810732,0,0.003463233,0
1786467946.235153,0.002131,-0.023003,-0.060904,-0.109375,0.019043,-0.997070,0.993623,0.018662,0.111160,-0.002912,-0.999915,0.008964,0.005472,0.007667,2.141256,12.768412,-0.096262,-1.022472,-0.634875,-0.873010,-0.013156,-0.155158,8.810957,0,0.003459706,0
1786467946.255234,0.005593,-0.024467,-0.061170,-0.110107,0.018066,-0.993896,0.993598,0.018710,0.111366,-0.003222,-0.999907,0.008844,0.006418,0.008174,2.142863,12.792893,-0.131283,-1.007523,-0.743652,-0.930212,0.004797,-0.155703,8.813997,0,0.003464245,0
1786467946.275271,0.004927,-0.023802,-0.061437,-0.112061,0.017090,-0.991211,0.993573,0.018753,0.111576,-0.003532,-0.999898,0.008642,0.007372,0.008675,2.143889,12.817783,-0.166479,-0.983016,-0.853248,-0.986880,0.021323,-0.154232,8.816483,0,0.003465758,0
1786467946.295850,0.000267,-0.020606,-0.061437,-0.113037,0.016357,-0.989258,0.993546,0.018772,0.111803,-0.003839,-0.999888,0.008435,0.008303,0.009188,2.142133,12.844519,-0.201632,-0.957964,-0.960291,-1.044887,0.038553,-0.151682,8.818153,0,0.003490074,0
1786467946.315237,-0.006125,-0.013282,-0.060771,-0.114258,0.016846,-0.988281,0.993515,0.018760,0.112065,-0.004139,-0.999876,0.008396,0.009156,0.009653,2.136837,12.875427,-0.236232,-0.952117,-1.058407,-1.097466,0.053916,-0.148134,8.818807,0,0.003457498,0
1786467946.335239,-0.013848,-0.005692,-0.060504,-0.114014,0.016357,-0.987061,0.993481,0.018709,0.112366,-0.004432,-0.999864,0.008368,0.009923,0.010132,2.127096,12.910681,-0.270526,-0.947508,-1.146706,-1.151667,0.069506,-0.149143,8.819619,0,0.003459209,0
1786467946.355248,-0.019574,0.003363,-0.060371,-0.114502,0.017334,-0.986572,0.993442,0.018631,0.112711,-0.004721,-0.999851,0.008526,0.010598,0.010606,2.114188,12.951097,-0.304531,-0.964248,-1.224736,-1.205216,0.082346,-0.148442,8.819752,0,0.003460820,0
1786467946.375681,-0.021172,0.012550,-0.059306,-0.113770,0.017822,-0.988037,0.993398,0.018545,0.113102,-0.005002,-0.999838,0.008728,0.011160,0.011080,2.100561,12.996739,-0.337705,-0.986081,-1.289863,-1.258776,0.094590,-0.151145,8.817975,0,0.003480086,0
1786467946.395137,-0.018109,0.022804,-0.058640,-0.113281,0.018066,-0.988525,0.993347,0.018476,0.113543,-0.005281,-0.999827,0.008885,0.011612,0.011517,2.088800,13.048229,-0.370271,-1.002987,-1.342208,-1.308196,0.104459,-0.153810,8.817287,0,0.003452932,0
1786467946.416102,-0.010918,0.027997,-0.057708,-0.112549,0.018066,-0.989746,0.993293,0.018443,0.114011,-0.005558,-0.999816,0.008952,0.011978,0.011985,2.081248,13.102673,-0.402186,-1.009514,-1.384786,-1.361335,0.112803,-0.155493,8.815983,0,0.003496924,0
1786467946.435211,-0.003062,0.031059,-0.057176,-0.111328,0.018555,-0.992676,0.993236,0.018450,0.114493,-0.005837,-0.999807,0.008994,0.012314,0.012392,2.078292,13.158852,-0.433714,-1.013289,-1.423717,-1.407685,0.121260,-0.154524,8.813019,0,0.003450793,0
1786467946.456089,0.004128,0.030660,-0.055977,-0.109863,0.017578,-0.995850,0.993178,0.018492,0.114972,-0.006114,-0.999799,0.008834,0.012602,0.012836,2.079469,13.214797,-0.464573,-0.993928,-1.456934,-1.458449,0.128901,-0.154759,8.809820,0,0.003491511,0
1786467946.476504,0.008256,0.026665,-0.055045,-0.109131,0.016846,-0.997070,0.993121,0.018554,0.115432,-0.006390,-0.999792,0.008591,0.012924,0.013253,2.083000,13.268451,-0.494988,-0.964977,-1.493873,-1.506360,0.136156,-0.151397,8.808568,0,0.003502522,0
1786467946.495225,0.007591,0.020140,-0.054246,-0.107422,0.016846,-0.998047,0.993069,0.018613,0.115860,-0.006661,-0.999783,0.008431,0.013299,0.013618,2.086218,13.318353,-0.525069,-0.945591,-1.536911,-1.548039,0.145699,-0.146700,8.807458,0,0.003438498,0
1786467946.515372,0.002131,0.012550,-0.053181,-0.107910,0.015869,-0.999023,0.993021,0.018644,0.116250,-0.006925,-0.999774,0.008230,0.013734,0.014007,2.086266,13.363907,-0.554715,-0.921254,-1.586849,-1.592542,0.153703,-0.145272,8.806216,0,0.003451021,0
1786467946.535216,-0.004527,0.004827,-0.051982,-0.107422,0.016113,-0.999268,0.992978,0.018643,0.116601,-0.007180,-0.999762,0.008170,0.014235,0.014375,2.082623,13.405009,-0.583818,-0.912991,-1.644513,-1.634404,0.164198,-0.142149,8.805651,0,0.003447601,0
1786467946.556003,-0.011451,-0.002230,-0.050784,-0.108154,0.016113,-0.997070,0.992939,0.018608,0.116918,-0.007426,-0.999748,0.008187,0.014813,0.014751,2.075087,13.442047,-0.612376,-0.913313,-1.711105,-1.677017,0.174693,-0.142178,8.807437,0,0.003485215,0
1786467946.575157,-0.016777,-0.009687,-0.049186,-0.108887,0.017334,-0.997559,0.992906,0.018548,0.117198,-0.007660,-0.999732,0.008387,0.015458,0.015070,2.064757,13.474762,-0.640132,-0.934676,-1.785640,-1.712614,0.186686,-0.141882,8.806493,0,0.003443967,0
1786467946.595163,-0.015579,-0.012750,-0.047721,-0.109375,0.016846,-0.995605,0.992874,0.018494,0.117462,-0.007889,-0.999715,0.008475,0.016135,0.015392,2.055191,13.505701,-0.667112,-0.942944,-1.863731,-1.748815,0.199620,-0.145918,8.807997,0,0.003449144,0
1786467946.615223,-0.011717,-0.013948,-0.045857,-0.110840,0.017822,-0.992920,0.992842,0.018460,0.117720,-0.008111,-0.999698,0.008648,0.016840,0.015692,2.048130,13.535900,-0.693004,-0.961053,-1.945095,-1.782289,0.211719,-0.145587,8.810290,0,0.003455389,0
1786467946.635466,-0.003328,-0.010752,-0.043860,-0.111816,0.017822,-0.990479,0.992808,0.018469,0.117994,-0.008327,-0.999681,0.008728,0.017523,0.015972,2.046117,13.567890,-0.717659,-0.968402,-2.023695,-1.813636,0.223983,-0.146997,8.812367,0,0.003467873,0
1786467946.655537,0.003995,-0.006092,-0.041330,-0.111816,0.017334,-0.988770,0.992770,0.018516,0.118290,-0.008535,-0.999666,0.008679,0.018152,0.016222,2.048593,13.602506,-0.740739,-0.961146,-2.095925,-1.841801,0.236409,-0.147281,8.813727,0,0.003470003,0
1786467946.675184,0.009322,0.001498,-0.039599,-0.112793,0.017090,-0.988770,0.992727,0.018589,0.118623,-0.008736,-0.999653,0.008575,0.018709,0.016444,2.054334,13.641441,-0.762651,-0.947749,-2.159773,-1.866974,0.246247,-0.145286,8.813428,0,0.003453496,0
1786467946.695251,0.011186,0.009088,-0.037202,-0.113525,0.017090,-0.988037,0.992679,0.018674,0.118994,-0.008926,-0.999641,0.008485,0.019194,0.016649,2.061483,13.684675,-0.782992,-0.936077,-2.215381,-1.890195,0.254905,-0.142610,8.813869,0,0.003458932,0
1786467946.715439,0.009322,0.016412,-0.035071,-0.112793,0.015625,-0.988037,0.992627,0.018750,0.119401,-0.009104,-0.999632,0.008242,0.019587,0.016836,2.067734,13.732083,-0.801957,-0.907101,-2.260115,-1.911910,0.263693,-0.142450,8.813566,0,0.003468241,0
1786467946.736082,0.003596,0.025334,-0.032275,-0.113037,0.016113,-0.989502,0.992571,0.018800,0.119852,-0.009264,-0.999624,0.008172,0.019882,0.017004,2.071176,13.784536,-0.819070,-0.898054,-2.293999,-1.931035,0.269264,-0.138111,8.811882,0,0.003494716,0
1786467946.756074,-0.004926,0.031326,-0.029345,-0.111572,0.015625,-0.990967,0.992511,0.018809,0.120333,-0.009403,-0.999618,0.008129,0.020099,0.017137,2.070132,13.840366,-0.834335,-0.892409,-2.318879,-1.946274,0.275544,-0.138702,8.810157,0,0.003486800,0
1786467946.775693,-0.010386,0.033057,-0.026815,-0.111328,0.016357,-0.992676,0.992450,0.018794,0.120823,-0.009526,-0.999611,0.008237,0.020295,0.017243,2.066383,13.897124,-0.848054,-0.904251,-2.341699,-1.957993,0.279808,-0.138004,8.808251,0,0.003464914,0
1786467946.795356,-0.012383,0.032657,-0.024552,-0.109375,0.017090,-0.994385,0.992390,0.018771,0.121310,-0.009637,-0.999605,0.008430,0.020467,0.017333,2.061884,13.953594,-0.860423,-0.925785,-2.361859,-1.967686,0.285684,-0.139683,8.806338,0,0.003450374,0
1786467946.815452,-0.010785,0.029861,-0.022554,-0.108887,0.016846,-0.997070,0.992332,0.018756,0.121784,-0.009739,-0.999599,0.008523,0.020649,0.017409,2.058513,14.008429,-0.871684,-0.935960,-2.382896,-1.976057,0.289958,-0.143378,8.803457,0,0.003457847,0
1786467946.835430,-0.006125,0.024402,-0.020024,-0.108398,0.018311,-0.998047,0.992276,0.018767,0.122229,-0.009832,-0.999591,0.008743,0.020881,0.017459,2.058274,14.060065,-0.881529,-0.960564,-2.410020,-1.981060,0.295032,-0.142792,8.802307,0,0.003458427,0
1786467946.855346,0.000134,0.016678,-0.017894,-0.106934,0.017822,-0.998535,0.992224,0.018809,0.122636,-0.009918,-0.999584,0.008793,0.021170,0.017490,2.061829,14.107244,-0.890289,-0.965709,-2.443273,-1.984200,0.302545,-0.146317,8.801548,0,0.003456253,0
1786467946.875576,0.006126,0.011086,-0.015897,-0.107422,0.018311,-0.999268,0.992175,0.018882,0.123014,-0.009999,-0.999576,0.008848,0.021516,0.017501,2.069104,14.151175,-0.897974,-0.971303,-2.483062,-1.985100,0.308737,-0.145547,8.800562,0,0.003467991,0
1786467946.895972,0.011718,0.002963,-0.014299,-0.107178,0.017334,-1.000000,0.992130,0.018983,0.123352,-0.010076,-0.999568,0.008723,0.021935,0.017498,2.079667,14.190438,-0.904908,-0.956192,-2.530792,-1.984709,0.317345,-0.146349,8.799491,0,0.003483919,0
1786467946.916601,0.013450,-0.004361,-0.011902,-0.107666,0.016846,-0.997803,0.992090,0.019093,0.123654,-0.010144,-0.999559,0.008566,0.022431,0.017472,2.091478,14.225466,-0.910593,-0.937289,-2.587322,-1.981620,0.326472,-0.143862,8.801313,0,0.003505969,0
1786467946.935446,0.012651,-0.009687,-0.008972,-0.108398,0.015625,-0.996094,0.992053,0.019200,0.123928,-0.010196,-0.999550,0.008316,0.022970,0.017409,2.103096,14.257401,-0.914692,-0.907749,-2.648529,-1.974617,0.336307,-0.142240,8.802582,0,0.003446306,0
1786467946.955633,0.007591,-0.013548,-0.006176,-0.109131,0.015869,-0.995605,0.992019,0.019283,0.124184,-0.010233,-0.999539,0.008200,0.023556,0.017326,2.112227,14.287062,-0.917216,-0.893504,-2.715363,-1.964917,0.346939,-0.137794,8.802598,0,0.003458644,0
1786467946.975241,0.001732,-0.015280,-0.004045,-0.109863,0.015869,-0.994385,0.991987,0.019339,0.124431,-0.010255,-0.999527,0.008161,0.024154,0.017223,2.118296,14.315687,-0.918518,-0.888194,-2.783730,-1.952772,0.357893,-0.136559,8.803277,0,0.003443320,0
1786467946.995209,-0.004793,-0.013415,-0.001249,-0.111572,0.015381,-0.991699,0.991954,0.019363,0.124687,-0.010259,-0.999515,0.008120,0.024748,0.017094,2.120967,14.345329,-0.918147,-0.882652,-2.851653,-1.937616,0.367539,-0.137450,8.805403,0,0.003447075,0
1786467947.015209,-0.008388,-0.010353,0.001281,-0.111572,0.015625,-0.989990,0.991920,0.019371,0.124959,-0.010248,-0.999503,0.008153,0.025307,0.016944,2.121987,14.376667,-0.916205,-0.885819,-2.915558,-1.919878,0.378531,-0.136986,8.806576,0,0.003451243,0
1786467947.035197,-0.009054,-0.004094,0.005009,-0.112061,0.016846,-0.989014,0.991882,0.019380,0.125261,-0.010217,-0.999492,0.008347,0.025804,0.016760,2.123327,14.411491,-0.911890,-0.907675,-2.972795,-1.897776,0.387714,-0.136452,8.807061,0,0.003453890,0
1786467947.057729,-0.005858,0.002564,0.007406,-0.112793,0.017822,-0.989258,0.991840,0.019407,0.125595,-0.010176,-0.999482,0.008603,0.026242,0.016542,2.126977,14.450061,-0.905985,-0.936896,-3.023270,-1.871698,0.395396,-0.138745,8.806332,0,0.003564991,0
1786467947.075249,-0.000665,0.009355,0.010202,-0.112549,0.017578,-0.988770,0.991792,0.019461,0.125963,-0.010124,-0.999475,0.008713,0.026610,0.016324,2.134033,14.492464,-0.898278,-0.949501,-3.065475,-1.846016,0.403263,-0.142809,8.806352,0,0.003433823,0
1786467947.095522,0.006658,0.014548,0.013132,-0.111572,0.017578,-0.990234,0.991741,0.019554,0.126356,-0.010061,-0.999471,0.008735,0.026897,0.016066,2.145769,14.537775,-0.888711,-0.952297,-3.098122,-1.816128,0.410210,-0.143596,8.804536,0,0.003452874,0
1786467947.115243,0.011852,0.019075,0.015396,-0.111084,0.017334,-0.991455,0.991687,0.019675,0.126771,-0.009989,-0.999469,0.008676,0.027131,0.015794,2.160841,14.585631,-0.877698,-0.945971,-3.124627,-1.784815,0.415537,-0.143402,8.803041,0,0.003443783,0
1786467947.135182,0.015580,0.021339,0.018192,-0.110840,0.017334,-0.993164,0.991630,0.019816,0.127196,-0.009906,-0.999469,0.008597,0.027334,0.015494,2.178505,14.634717,-0.864964,-0.937533,-3.147383,-1.750571,0.419871,-0.141624,8.801117,0,0.003446134,0
1786467947.155625,0.014914,0.020673,0.020722,-0.110596,0.016846,-0.994141,0.991574,0.019955,0.127618,-0.009811,-0.999470,0.008477,0.027530,0.015168,2.196148,14.683368,-0.850743,-0.924430,-3.169432,-1.713389,0.424043,-0.140751,8.799942,0,0.003469465,0
1786467947.175231,0.010653,0.018143,0.022986,-0.108643,0.016357,-0.996094,0.991520,0.020074,0.128028,-0.009701,-0.999470,0.008362,0.027732,0.014838,2.211691,14.730519,-0.835229,-0.912049,-3.192029,-1.675645,0.430418,-0.139922,8.797785,0,0.003451326,0
1786467947.195346,0.004794,0.013749,0.024317,-0.108643,0.016357,-0.998047,0.991469,0.020165,0.128415,-0.009582,-0.999469,0.008320,0.027967,0.014493,2.224084,14.775119,-0.819013,-0.907958,-3.218621,-1.635983,0.435030,-0.138892,8.795626,0,0.003459386,0
1786467947.215595,-0.001198,0.007091,0.026315,-0.107666,0.015869,-0.998047,0.991423,0.020227,0.128770,-0.009450,-0.999467,0.008274,0.028253,0.014132,2.233297,14.815865,-0.801766,-0.903402,-3.251017,-1.594515,0.441838,-0.139865,8.795332,0,0.003471182,0
1786467947.235337,-0.005992,-0.000499,0.028312,-0.107910,0.016602,-0.998291,0.991382,0.020267,0.129087,-0.009305,-0.999461,0.008370,0.028613,0.013762,2.240112,14.852207,-0.783484,-0.915035,-3.292092,-1.551518,0.448646,-0.139291,8.794726,0,0.003458410,0
1786467947.255447,-0.007323,-0.008222,0.030309,-0.108154,0.017334,-0.998535,0.991347,0.020301,0.129366,-0.009150,-0.999452,0.008544,0.029048,0.013371,2.246507,14.884068,-0.764173,-0.935687,-3.341769,-1.505692,0.456987,-0.140872,8.793970,0,0.003464501,0
1786467947.275626,-0.005326,-0.015812,0.031774,-0.108398,0.017578,-0.998779,0.991316,0.020347,0.129606,-0.008990,-0.999441,0.008689,0.029553,0.012967,2.254260,14.911545,-0.744159,-0.952881,-3.399559,-1.458398,0.466806,-0.143790,8.793079,0,0.003472054,0
1786467947.295625,-0.001730,-0.019674,0.033505,-0.109375,0.018066,-0.997314,0.991287,0.020411,0.129827,-0.008824,-0.999429,0.008835,0.030100,0.012550,2.264368,14.936761,-0.723193,-0.970405,-3.462058,-1.409541,0.476496,-0.145527,8.793849,0,0.003470046,0
1786467947.315912,0.003995,-0.023669,0.034570,-0.109131,0.018066,-0.994629,0.991260,0.020505,0.130028,-0.008658,-0.999416,0.008912,0.030683,0.012120,2.277924,14.959658,-0.701682,-0.979951,-3.528511,-1.359365,0.488330,-0.147370,8.795754,0,0.003480842,0
1786467947.335339,0.009854,-0.025000,0.036568,-0.110107,0.017822,-0.994385,0.991234,0.020628,0.130222,-0.008485,-0.999403,0.008900,0.031268,0.011686,2.295125,14.981744,-0.679020,-0.979369,-3.595145,-1.309159,0.498817,-0.148126,8.795227,0,0.003452266,0
1786467947.355760,0.014515,-0.024467,0.038432,-0.111084,0.017334,-0.992920,0.991207,0.020776,0.130418,-0.008306,-0.999391,0.008795,0.031863,0.011217,2.315256,15.004088,-0.655251,-0.968285,-3.662803,-1.255142,0.509383,-0.147499,8.795934,0,0.003473138,0
1786467947.375791,0.015181,-0.021272,0.039497,-0.112305,0.016846,-0.990234,0.991177,0.020928,0.130630,-0.008122,-0.999379,0.008653,0.032429,0.010747,2.335919,15.028234,-0.630784,-0.953045,-3.727039,-1.201223,0.518986,-0.146028,8.797949,0,0.003472227,0
1786467947.395443,0.012917,-0.015812,0.041628,-0.112549,0.016357,-0.989014,0.991144,0.021069,0.130869,-0.007925,-0.999369,0.008499,0.032932,0.010269,2.355630,15.055451,-0.604929,-0.936678,-3.784074,-1.146477,0.528577,-0.144450,8.798582,0,0.003455383,0
1786467947.415296,0.007857,-0.010486,0.043359,-0.113281,0.016113,-0.990234,0.991108,0.021187,0.131134,-0.007716,-0.999360,0.008381,0.033382,0.009775,2.372743,15.085670,-0.577918,-0.924538,-3.835104,-1.089833,0.536582,-0.142914,8.796868,0,0.003451250,0
1786467947.435621,0.001332,-0.004094,0.044424,-0.112793,0.016357,-0.989746,0.991069,0.021274,0.131431,-0.007497,-0.999352,0.008371,0.033760,0.009267,2.386392,15.119508,-0.550100,-0.924895,-3.878007,-1.031240,0.544560,-0.141904,8.796946,0,0.003468278,0
1786467947.455311,-0.002929,0.001632,0.045356,-0.113037,0.015625,-0.989014,0.991026,0.021340,0.131756,-0.007270,-0.999346,0.008296,0.034077,0.008769,2.397735,15.156604,-0.521597,-0.917920,-3.913778,-0.974136,0.550536,-0.143518,8.797297,0,0.003454032,0
1786467947.475250,-0.006258,0.005759,0.046821,-0.111816,0.017090,-0.990234,0.990980,0.021392,0.132102,-0.007033,-0.999340,0.008455,0.034337,0.008258,2.407626,15.195998,-0.492067,-0.937991,-3.943245,-0.914595,0.557097,-0.141536,8.795768,0,0.003453926,0
1786467947.495244,-0.005326,0.008955,0.047354,-0.111572,0.017334,-0.992432,0.990933,0.021449,0.132463,-0.006794,-0.999336,0.008590,0.034556,0.007744,2.418214,15.237198,-0.462121,-0.955301,-3.967998,-0.854868,0.561767,-0.144545,8.793205,0,0.003456152,0
1786467947.515339,-0.002396,0.010154,0.048552,-0.111328,0.018066,-0.994141,0.990883,0.021523,0.132830,-0.006550,-0.999331,0.008755,0.034756,0.007218,2.430785,15.279037,-0.431400,-0.976251,-3.990592,-0.793699,0.566025,-0.146223,8.791145,0,0.003462154,0
1786467947.535356,0.002797,0.008822,0.048951,-0.110352,0.017822,-0.994873,0.990835,0.021622,0.133190,-0.006308,-0.999328,0.008801,0.034956,0.006693,2.446409,15.320098,-0.400462,-0.983435,-4.012999,-0.733024,0.571129,-0.149042,8.790015,0,0.003463363,0
1786467947.555348,0.008523,0.005094,0.049484,-0.109131,0.018799,-0.995850,0.990787,0.021752,0.133531,-0.006068,-0.999322,0.008915,0.035179,0.006165,2.465531,15.358983,-0.369254,-0.998553,-4.038158,-0.671724,0.576906,-0.148184,8.788641,0,0.003463215,0
1786467947.575456,0.013450,0.000833,0.049884,-0.108643,0.018799,-0.998535,0.990742,0.021906,0.133851,-0.005829,-0.999316,0.008954,0.035434,0.005632,2.487564,15.395404,-0.337899,-1.005092,-4.066826,-0.610074,0.582524,-0.149787,8.785500,0,0.003468026,0
1786467947.595409,0.015047,-0.005958,0.049750,-0.109131,0.017822,-0.998047,0.990701,0.022067,0.134137,-0.005593,-0.999308,0.008845,0.035754,0.005105,2.510388,15.427942,-0.306809,-0.994557,-4.102961,-0.549733,0.588265,-0.151554,8.785512,0,0.003465069,0
1786467947.616998,0.013450,-0.012350,0.050017,-0.108643,0.016846,-0.997803,0.990665,0.022219,0.134392,-0.005355,-0.999299,0.008642,0.036138,0.004537,2.532254,15.456814,-0.275738,-0.973422,-4.146334,-0.485053,0.596396,-0.150868,8.785261,0,0.003532862,0
1786467947.635861,0.009588,-0.018608,0.049884,-0.108643,0.017090,-0.997070,0.990633,0.022353,0.134615,-0.005116,-0.999287,0.008563,0.036558,0.004044,2.551913,15.482087,-0.244893,-0.966268,-4.193970,-0.428316,0.604703,-0.147984,8.785493,0,0.003467166,0
1786467947.655474,0.003063,-0.024068,0.049884,-0.109131,0.017334,-0.996094,0.990605,0.022454,0.134812,-0.004874,-0.999271,0.008577,0.037036,0.003536,2.567850,15.504219,-0.214180,-0.969839,-4.248317,-0.369473,0.613591,-0.147753,8.785874,0,0.003449938,0
1786467947.677490,-0.001065,-0.026465,0.050150,-0.110352,0.017090,-0.995117,0.990579,0.022535,0.134997,-0.004628,-0.999253,0.008581,0.037576,0.002968,2.581433,15.524967,-0.183379,-0.972536,-4.309610,-0.303787,0.622749,-0.149541,8.786113,0,0.003539698,0
1786467947.695904,-0.004527,-0.028462,0.049617,-0.110840,0.017334,-0.994385,0.990555,0.022599,0.135172,-0.004382,-0.999234,0.008629,0.038082,0.002500,2.592976,15.544573,-0.152938,-0.980051,-4.367210,-0.249295,0.632199,-0.150228,8.786128,0,0.003453117,0
1786467947.715641,-0.006125,-0.027530,0.049484,-0.111328,0.017578,-0.992676,0.990530,0.022654,0.135351,-0.004136,-0.999215,0.008710,0.038596,0.002003,2.603628,15.564705,-0.122542,-0.991413,-4.425744,-0.191367,0.641703,-0.151688,8.787064,0,0.003444653,0
1786467947.736497,-0.004394,-0.026199,0.049218,-0.112549,0.018311,-0.991699,0.990504,0.022719,0.135537,-0.003892,-0.999194,0.008854,0.039120,0.001483,2.615317,15.585587,-0.092248,-1.010227,-4.485333,-0.130463,0.650468,-0.152628,8.787213,0,0.003485941,0
1786467947.755376,-0.000665,-0.020872,0.048818,-0.112549,0.018311,-0.990723,0.990474,0.022803,0.135750,-0.003652,-0.999177,0.008930,0.039562,0.001016,2.629145,15.609519,-0.062040,-1.021132,-4.535474,-0.076099,0.659086,-0.154954,8.787417,0,0.003432777,0
1786467947.775237,0.004661,-0.015945,0.048419,-0.113281,0.018555,-0.988525,0.990440,0.022912,0.135986,-0.003417,-0.999160,0.008983,0.039969,0.000530,2.646041,15.636267,-0.031922,-1.029482,-4.581658,-0.019611,0.666088,-0.155546,8.788911,0,0.003434582,0
1786467947.795260,0.010387,-0.008622,0.048286,-0.113281,0.018066,-0.989258,0.990400,0.023050,0.136259,-0.003186,-0.999148,0.008911,0.040297,0.000042,2.666239,15.667206,-0.001684,-1.023399,-4.618862,0.036460,0.672508,-0.156326,8.787581,0,0.003442806,0
1786467947.815372,0.014248,-0.002230,0.047620,-0.113770,0.018555,-0.988770,0.990355,0.023207,0.136564,-0.002960,-0.999137,0.008886,0.040566,-0.000441,2.688672,15.701799,0.028361,-1.022883,-4.649157,0.092047,0.677087,-0.154037,8.787643,0,0.003452776,0
1786467947.835247,0.014914,0.002830,0.046821,-0.114014,0.017822,-0.989502,0.990306,0.023367,0.136893,-0.002738,-0.999129,0.008759,0.040781,-0.000907,2.711366,15.739306,0.058066,-1.010490,-4.673321,0.145285,0.681010,-0.154580,8.786570,0,0.003450244,0
1786467947.855535,0.012784,0.007624,0.045889,-0.112793,0.016357,-0.990967,0.990255,0.023514,0.137247,-0.002518,-0.999125,0.008479,0.040928,-0.001371,2.732648,15.779591,0.087336,-0.980497,-4.689848,0.197426,0.685384,-0.154306,8.784908,0,0.003465918,0
1786467947.875346,0.009055,0.009887,0.045622,-0.111816,0.017334,-0.991699,0.990201,0.023644,0.137612,-0.002298,-0.999120,0.008426,0.041047,-0.001818,2.751930,15.821147,0.116561,-0.976587,-4.703017,0.248669,0.688791,-0.148968,8.784100,0,0.003457436,0
1786467947.895352,0.003729,0.011219,0.044424,-0.111816,0.017578,-0.992920,0.990148,0.023748,0.137983,-0.002079,-0.999115,0.008452,0.041149,-0.002254,2.768045,15.863482,0.145134,-0.981707,-4.714333,0.298956,0.690740,-0.149055,8.782778,0,0.003459327,0
1786467947.915429,-0.001331,0.010953,0.043226,-0.110840,0.017090,-0.993896,0.990095,0.023825,0.138353,-0.001863,-0.999110,0.008441,0.041242,-0.002676,2.781071,15.905695,0.172994,-0.982490,-4.724531,0.347481,0.693664,-0.151374,8.781668,0,0.003463778,0
1786467947.935172,-0.005326,0.008023,0.041894,-0.110107,0.018066,-0.995605,0.990044,0.023882,0.138709,-0.001651,-0.999103,0.008584,0.041358,-0.003076,2.791709,15.946245,0.200021,-1.000783,-4.737346,0.394146,0.696699,-0.151256,8.779795,0,0.003452905,0
1786467947.955272,-0.005059,0.003895,0.040030,-0.109375,0.018311,-0.996582,0.989996,0.023940,0.139045,-0.001449,-0.999094,0.008713,0.041504,-0.003463,2.802222,15.984474,0.225840,-1.017499,-4.753715,0.439435,0.700348,-0.154087,8.778514,0,0.003459949,0
1786467947.975240,-0.002529,-0.001298,0.038831,-0.108887,0.018555,-0.997803,0.989951,0.024010,0.139355,-0.001255,-0.999084,0.008813,0.041695,-0.003837,2.814003,16.019754,0.250814,-1.030927,-4.775154,0.483043,0.704622,-0.156175,8.776907,0,0.003459584,0
1786467947.995198,0.002397,-0.006358,0.037500,-0.109375,0.018799,-0.996582,0.989908,0.024103,0.139640,-0.001071,-0.999072,0.008881,0.041938,-0.004198,2.828389,16.052166,0.274863,-1.040629,-4.802665,0.525152,0.708765,-0.157231,8.777666,0,0.003458908,0
1786467948.015281,0.008123,-0.011152,0.035636,-0.110352,0.018799,-0.996582,0.989869,0.024224,0.139901,-0.000902,-0.999058,0.008886,0.042235,-0.004545,2.845722,16.081880,0.297667,-1.043045,-4.836286,0.565306,0.713422,-0.157709,8.777129,0,0.003463744,0
1786467948.035661,0.012784,-0.015013,0.033905,-0.110840,0.018799,-0.996094,0.989831,0.024366,0.140143,-0.000745,-0.999042,0.008854,0.042572,-0.004880,2.865435,16.109423,0.319335,-1.041243,-4.874688,0.604066,0.719470,-0.157117,8.777035,0,0.003480055,0
1786467948.055262,0.014914,-0.017410,0.032307,-0.111572,0.017822,-0.994141,0.989795,0.024517,0.140374,-0.000598,-0.999027,0.008692,0.042929,-0.005186,2.886013,16.135646,0.339960,-1.024448,-4.915335,0.638861,0.725636,-0.157403,8.778398,0,0.003459080,0
1786467948.075254,0.013716,-0.017676,0.031375,-0.112061,0.018066,-0.992676,0.989759,0.024662,0.140604,-0.000454,-0.999010,0.008611,0.043293,-0.005488,2.905798,16.161729,0.360035,-1.016901,-4.956873,0.673562,0.732190,-0.154465,8.779318,0,0.003459994,0
1786467948.095289,0.010254,-0.015280,0.028978,-0.112549,0.017090,-0.991455,0.989721,0.024787,0.140845,-0.000320,-0.998995,0.008444,0.043633,-0.005765,2.923150,16.189261,0.378734,-0.999338,-4.995749,0.704822,0.738274,-0.154804,8.780012,0,0.003462483,0
1786467948.115275,0.004794,-0.012217,0.027513,-0.113525,0.016602,-0.990234,0.989682,0.024884,0.141102,-0.000190,-0.998981,0.008292,0.043949,-0.006021,2.937119,16.218589,0.396642,-0.983413,-5.031763,0.733906,0.743284,-0.153362,8.780784,0,0.003462284,0
1786467948.136613,-0.000266,-0.007157,0.026448,-0.113770,0.017578,-0.989014,0.989640,0.024956,0.141385,-0.000060,-0.998967,0.008345,0.044223,-0.006282,2.948168,16.250823,0.414103,-0.990972,-5.062877,0.764392,0.748246,-0.150683,8.781611,0,0.003519952,0
1786467948.155233,-0.004127,-0.001165,0.024450,-0.114014,0.018311,-0.988770,0.989594,0.025008,0.141697,0.000064,-0.998955,0.008502,0.044431,-0.006485,2.956809,16.286527,0.430583,-1.010233,-5.086435,0.788797,0.752005,-0.151836,8.781490,0,0.003447186,0
1786467948.175238,-0.005193,0.005626,0.023518,-0.114502,0.018555,-0.989502,0.989543,0.025054,0.142042,0.000184,-0.998946,0.008656,0.044574,-0.006694,2.964775,16.326138,0.446730,-1.029193,-5.102467,0.813765,0.754215,-0.155140,8.780461,0,0.003451560,0
1786467948.195257,-0.003595,0.011752,0.021388,-0.114014,0.018555,-0.989258,0.989488,0.025107,0.142418,0.000294,-0.998941,0.008757,0.044649,-0.006882,2.973375,16.369314,0.461808,-1.041840,-5.110847,0.835968,0.756247,-0.158017,8.780504,0,0.003455475,0
1786467948.215596,0.000267,0.016146,0.019923,-0.112549,0.018555,-0.990234,0.989429,0.025178,0.142816,0.000394,-0.998938,0.008799,0.044663,-0.007061,2.984019,16.415043,0.476167,-1.047586,-5.112229,0.856731,0.758251,-0.159408,8.779434,0,0.003472036,0
1786467948.235488,0.005593,0.020274,0.018059,-0.112793,0.019043,-0.991943,0.989366,0.025274,0.143235,0.000482,-0.998938,0.008845,0.044641,-0.007218,2.997494,16.463178,0.489566,-1.053607,-5.109487,0.875002,0.757541,-0.158855,8.777744,0,0.003465491,0
1786467948.255389,0.010653,0.021872,0.016328,-0.111572,0.018799,-0.993408,0.989301,0.025394,0.143662,0.000558,-0.998939,0.008801,0.044590,-0.007361,3.013607,16.512279,0.501997,-1.049265,-5.103543,0.891149,0.757989,-0.159144,8.776328,0,0.003460917,0
1786467948.275762,0.013316,0.021872,0.014464,-0.111084,0.018555,-0.994629,0.989235,0.025526,0.144089,0.000622,-0.998942,0.008709,0.044529,-0.007490,3.030937,16.561435,0.513326,-1.039288,-5.096544,0.905454,0.757353,-0.158059,8.775226,0,0.003477625,0
1786467948.295453,0.013316,0.019208,0.012599,-0.110107,0.017578,-0.995361,0.989172,0.025656,0.144503,0.000677,-0.998945,0.008515,0.044492,-0.007597,3.047874,16.609133,0.523454,-1.017539,-5.092340,0.916684,0.757760,-0.157375,8.774576,0,0.003461096,0
1786467948.315626,0.010254,0.015214,0.011001,-0.110596,0.017334,-0.996338,0.989111,0.025769,0.144897,0.000726,-0.998945,0.008360,0.044495,-0.007689,3.062741,16.654594,0.532505,-1.000201,-5.092710,0.926470,0.757209,-0.154403,8.773673,0,0.003469233,0
1786467948.335793,0.006392,0.011485,0.009270,-0.109863,0.017578,-0.996826,0.989053,0.025863,0.145273,0.000768,-0.998943,0.008308,0.044530,-0.007763,3.075123,16.697966,0.540427,-0.994637,-5.096708,0.934719,0.758711,-0.151911,8.773166,0,0.003475096,0
1786467948.355781,0.001199,0.006558,0.008072,-0.109375,0.017822,-0.996582,0.989000,0.025930,0.145625,0.000808,-0.998939,0.008343,0.044612,-0.007822,3.084325,16.738548,0.547493,-0.998985,-5.105961,0.941823,0.760838,-0.151703,8.773274,0,0.003471853,0
1786467948.375383,-0.003062,0.001898,0.006075,-0.109863,0.017578,-0.996826,0.988950,0.025975,0.145954,0.000840,-0.998933,0.008365,0.044741,-0.007859,3.090676,16.776529,0.553213,-1.001842,-5.120791,0.946289,0.762833,-0.153466,8.772788,0,0.003452987,0
1786467948.395306,-0.005725,-0.002496,0.004610,-0.110596,0.017822,-0.996094,0.988904,0.026006,0.146262,0.000867,-0.998924,0.008432,0.044920,-0.007880,3.095220,16.812038,0.557925,-1.009838,-5.141158,0.949318,0.765481,-0.154215,8.773202,0,0.003452448,0
1786467948.415249,-0.005459,-0.005426,0.003145,-0.110596,0.018066,-0.995117,0.988859,0.026037,0.146555,0.000885,-0.998914,0.008512,0.045125,-0.007888,3.099660,16.845912,0.561676,-1.019314,-5.164682,0.950852,0.769533,-0.155257,8.773790,0,0.003452866,0
1786467948.435441,-0.002929,-0.005958,0.001813,-0.111572,0.019287,-0.993408,0.988815,0.026080,0.146846,0.000895,-0.998902,0.008716,0.045347,-0.007883,3.105413,16.879502,0.564648,-1.042927,-5.189923,0.951596,0.772690,-0.155134,8.775103,0,0.003463838,0
1786467948.455278,0.002131,-0.005958,0.000748,-0.112549,0.018799,-0.992188,0.988770,0.026147,0.147137,0.000897,-0.998892,0.008766,0.045572,-0.007869,3.113820,16.913135,0.566969,-1.048903,-5.215681,0.950495,0.776000,-0.158623,8.775878,0,0.003456939,0
1786467948.475331,0.006792,-0.003695,-0.000450,-0.113281,0.018555,-0.991943,0.988723,0.026236,0.147439,0.000889,-0.998883,0.008737,0.045778,-0.007845,3.124681,16.948104,0.568644,-1.045622,-5.239342,0.947774,0.779227,-0.158936,8.775761,0,0.003460960,0
1786467948.495261,0.010920,0.000433,-0.001515,-0.113281,0.018311,-0.990723,0.988672,0.026344,0.147761,0.000873,-0.998876,0.008655,0.045941,-0.007812,3.137745,16.985471,0.569816,-1.036252,-5.258130,0.943719,0.782454,-0.157808,8.776715,0,0.003458730,0
1786467948.515265,0.011452,0.004960,-0.002181,-0.113281,0.017578,-0.989258,0.988617,0.026454,0.148107,0.000854,-0.998872,0.008497,0.046057,-0.007772,3.150982,17.025459,0.570726,-1.017935,-5.271629,0.938440,0.784782,-0.156828,8.778000,0,0.003460261,0
1786467948.535441,0.010254,0.010154,-0.002980,-0.113525,0.017578,-0.989990,0.988559,0.026557,0.148478,0.000833,-0.998871,0.008385,0.046121,-0.007723,3.163450,17.068442,0.571336,-1.004947,-5.279181,0.932309,0.785833,-0.153917,8.777203,0,0.003468688,0
1786467948.555281,0.005860,0.015746,-0.003779,-0.113281,0.017090,-0.990479,0.988497,0.026638,0.148877,0.000811,-0.998872,0.008273,0.046128,-0.007665,3.173283,17.114655,0.571650,-0.991734,-5.280149,0.925030,0.786357,-0.153057,8.776714,0,0.003460718,0
1786467948.575260,0.000533,0.019608,-0.005377,-0.112793,0.016602,-0.990479,0.988432,0.026691,0.149295,0.000786,-0.998875,0.008169,0.046091,-0.007588,3.179788,17.163136,0.571132,-0.979349,-5.276077,0.915648,0.786282,-0.152273,8.776786,0,0.003460681,0
1786467948.595217,-0.004260,0.022804,-0.006043,-0.112305,0.017334,-0.991455,0.988366,0.026720,0.149729,0.000762,-0.998878,0.008228,0.046020,-0.007504,3.183538,17.213453,0.570350,-0.985565,-5.267972,0.906139,0.785498,-0.150324,8.775943,0,0.003459671,0
1786467948.615203,-0.007190,0.023869,-0.006709,-0.112061,0.017090,-0.993408,0.988299,0.026735,0.150168,0.000737,-0.998883,0.008260,0.045935,-0.007411,3.185478,17.264405,0.569203,-0.988696,-5.258226,0.895597,0.784164,-0.152171,8.774102,0,0.003460163,0
1786467948.635849,-0.007856,0.023070,-0.007508,-0.111328,0.018066,-0.994873,0.988232,0.026746,0.150603,0.000709,-0.998886,0.008418,0.045846,-0.007309,3.186978,17.314911,0.567585,-1.006219,-5.247999,0.884566,0.783238,-0.151890,8.772774,0,0.003488700,0
1786467948.655639,-0.005059,0.020407,-0.008307,-0.110107,0.017822,-0.996094,0.988167,0.026770,0.151025,0.000674,-0.998890,0.008476,0.045781,-0.007205,3.189895,17.363923,0.565401,-1.012280,-5.240623,0.872857,0.783397,-0.154531,8.771611,0,0.003473693,0
1786467948.675452,-0.000532,0.017211,-0.009239,-0.109863,0.018555,-0.996582,0.988104,0.026816,0.151431,0.000631,-0.998891,0.008578,0.045747,-0.007095,3.195266,17.411127,0.562577,-1.023444,-5.236748,0.860665,0.782973,-0.153968,8.771188,0,0.003463362,0
1786467948.695553,0.003995,0.012417,-0.010703,-0.109375,0.018799,-0.997803,0.988043,0.026884,0.151814,0.000577,-0.998891,0.008649,0.045754,-0.006971,3.202942,17.455633,0.558728,-1.030905,-5.237592,0.846886,0.783669,-0.154728,8.769941,0,0.003467824,0
1786467948.715921,0.007324,0.006825,-0.011103,-0.109131,0.017822,-0.997803,0.987986,0.026967,0.152170,0.000517,-0.998890,0.008549,0.045811,-0.006845,3.212308,17.496968,0.554431,-1.018795,-5.244343,0.831937,0.785112,-0.156294,8.769829,0,0.003482615,0
1786467948.737922,0.008922,0.002564,-0.012035,-0.109375,0.018066,-0.996582,0.987932,0.027058,0.152504,0.000451,-0.998887,0.008495,0.045914,-0.006701,3.222398,17.535892,0.549444,-1.011935,-5.256300,0.815226,0.786827,-0.153481,8.770922,0,0.003563974,0
1786467948.755560,0.008256,-0.002097,-0.012967,-0.109619,0.017578,-0.996094,0.987882,0.027144,0.152816,0.000380,-0.998882,0.008413,0.046060,-0.006575,3.231844,17.572189,0.543730,-1.002030,-5.273290,0.800465,0.789533,-0.153312,8.771151,0,0.003438109,0
1786467948.776986,0.005194,-0.005426,-0.013500,-0.110107,0.017334,-0.995117,0.987834,0.027214,0.153111,0.000308,-0.998875,0.008337,0.046250,-0.006419,3.239376,17.606603,0.537579,-0.992536,-5.295246,0.782251,0.792736,-0.152140,8.771803,0,0.003505369,0
1786467948.795316,0.001066,-0.007956,-0.014165,-0.111084,0.017822,-0.993896,0.987789,0.027264,0.153394,0.000236,-0.998865,0.008381,0.046460,-0.006275,3.244423,17.639584,0.530953,-0.997011,-5.319500,0.766165,0.795800,-0.150954,8.772648,0,0.003423991,0
1786467948.815325,-0.004127,-0.008222,-0.014299,-0.110840,0.016846,-0.992676,0.987745,0.027287,0.153675,0.000167,-0.998857,0.008326,0.046674,-0.006116,3.246374,17.672433,0.524213,-0.990035,-5.344222,0.747864,0.800369,-0.153671,8.773416,0,0.003434224,0
1786467948.835359,-0.008388,-0.006891,-0.015364,-0.112549,0.017334,-0.992188,0.987700,0.027289,0.153963,0.000097,-0.998847,0.008381,0.046888,-0.005944,3.245711,17.706074,0.516883,-0.995583,-5.368920,0.728587,0.802622,-0.152807,8.773522,0,0.003443012,0
