timestamp,gx,gy,gz,ax,ay,az,madgwick_qw,madgwick_qx,madgwick_qy,madgwick_qz,kalman_qw,kalman_qx,kalman_qy,kalman_qz,madgwick_roll_deg,madgwick_pitch_deg,madgwick_yaw_deg,kalman_roll_deg,kalman_pitch_deg,kalman_yaw_deg,robot_accel_x,robot_accel_y,robot_accel_z,kalman_converged,kalman_P_change,convergence_counter
1786464119.002505,-0.008788,-0.009021,-0.094193,-0.095459,0.006836,-0.994629,1.000000,-0.000020,0.000284,-0.000471,0.999991,0.003503,0.002255,-0.000494,-0.002288,0.032544,-0.053970,0.401235,0.258615,-0.055710,-0.092156,0.005953,8.815148,0,0.087903733,0
1786464119.005082,-0.007989,-0.009421,-0.092862,-0.095459,0.006348,-0.993408,0.999999,-0.000038,0.000566,-0.000935,0.999959,0.008232,0.003828,-0.000635,-0.004378,0.064874,-0.107174,0.943083,0.439210,-0.069103,-0.137164,0.074812,8.816054,0,0.029356216,0
1786464119.007156,-0.007323,-0.009287,-0.091264,-0.094971,0.006592,-0.992188,0.999999,-0.000051,0.000849,-0.001392,0.999883,0.014404,0.005004,-0.000748,-0.006035,0.097273,-0.159462,1.650283,0.574563,-0.077471,-0.167740,0.167870,8.816019,0,0.014762275,0
1786464119.009106,-0.006258,-0.008755,-0.090199,-0.095215,0.006836,-0.992920,0.999998,-0.000059,0.001134,-0.001842,0.999738,0.022081,0.005913,-0.000854,-0.007047,0.129971,-0.211137,2.530005,0.679620,-0.082877,-0.191253,0.289187,8.812371,0,0.008934478,0
1786464119.011021,-0.005592,-0.008222,-0.087935,-0.094971,0.006592,-0.992188,0.999996,-0.000065,0.001422,-0.002282,0.999490,0.031245,0.006589,-0.000955,-0.007819,0.162982,-0.261514,3.580451,0.758077,-0.085810,-0.209143,0.439463,8.807434,0,0.006024593,0
1786464119.013241,-0.006524,-0.007157,-0.086071,-0.095215,0.006836,-0.991943,0.999995,-0.000075,0.001716,-0.002712,0.999090,0.042053,0.007039,-0.001067,-0.009084,0.196598,-0.310822,4.819883,0.811090,-0.088260,-0.222954,0.619237,8.797911,0,0.004378683,0
1786464119.033212,-0.005725,-0.005160,-0.082742,-0.094971,0.006104,-0.992432,0.999993,-0.000083,0.002019,-0.003126,0.998421,0.055678,0.007239,-0.001923,-0.010220,0.231377,-0.358222,6.382398,0.840492,-0.173811,-0.232336,0.828937,8.781879,0,0.004131454,0
1786464119.053333,-0.006924,-0.003295,-0.079546,-0.094727,0.005615,-0.992676,0.999991,-0.000099,0.002332,-0.003523,0.997304,0.072982,0.007082,-0.002762,-0.012271,0.267236,-0.403790,8.368916,0.832459,-0.256437,-0.238014,1.094418,8.755487,0,0.003961319,0
1786464119.073261,-0.007723,-0.000499,-0.075418,-0.093994,0.004883,-0.992188,0.999989,-0.000121,0.002660,-0.003900,0.995462,0.094880,0.006330,-0.003558,-0.015095,0.304711,-0.446995,10.886930,0.760802,-0.337027,-0.237032,1.430831,8.712390,0,0.003829374,0
1786464119.093416,-0.009054,0.001765,-0.071557,-0.093994,0.004639,-0.991699,0.999986,-0.000151,0.002998,-0.004258,0.992434,0.122614,0.004597,-0.004323,-0.018823,0.343486,-0.487987,14.084087,0.583600,-0.427101,-0.225882,1.855361,8.641048,0,0.003742808,0
1786464119.113204,-0.010652,0.004428,-0.067029,-0.092773,0.004150,-0.991943,0.999984,-0.000191,0.003350,-0.004593,0.987526,0.157373,0.001242,-0.005021,-0.023683,0.383794,-0.526386,18.108094,0.231114,-0.545814,-0.195474,2.389119,8.522972,0,0.003662896,0
1786464119.133368,-0.013448,0.007490,-0.062768,-0.092529,0.003662,-0.990967,0.999981,-0.000247,0.003718,-0.004906,0.979657,0.200546,-0.004689,-0.005663,-0.030379,0.425863,-0.562346,23.140949,-0.396216,-0.743568,-0.136287,3.050135,8.333678,0,0.003620051,0
1786464119.153351,-0.013981,0.009621,-0.057841,-0.093018,0.003174,-0.990723,0.999978,-0.000307,0.004096,-0.005195,0.967290,0.253172,-0.014644,-0.006205,-0.037628,0.469156,-0.595486,29.348455,-1.443363,-1.113116,-0.030440,3.855948,8.030628,0,0.003580259,0
1786464119.173213,-0.015046,0.011485,-0.053447,-0.091553,0.002441,-0.992188,0.999975,-0.000375,0.004483,-0.005462,0.948479,0.315285,-0.030635,-0.006623,-0.045809,0.513522,-0.626111,36.824120,-3.091884,-1.829574,0.149305,4.806741,7.557310,0,0.003545331,0
1786464119.193243,-0.015046,0.013749,-0.049053,-0.091553,0.002197,-0.993652,0.999972,-0.000445,0.004882,-0.005707,0.921016,0.385547,-0.055092,-0.006882,-0.054141,0.559184,-0.654222,45.582491,-5.518901,-3.176622,0.430346,5.871574,6.849331,0,0.003526474,0
1786464119.213197,-0.014247,0.015214,-0.045058,-0.091797,0.002686,-0.994385,0.999968,-0.000509,0.005289,-0.005932,0.883242,0.460054,-0.090478,-0.006944,-0.061890,0.605683,-0.680045,55.455701,-8.826276,-5.546851,0.843937,6.976044,5.841722,0,0.003509046,0
1786464119.233278,-0.013448,0.016545,-0.040531,-0.090820,0.002441,-0.994629,0.999965,-0.000570,0.005702,-0.006134,0.835203,0.532186,-0.138450,-0.006781,-0.069315,0.652945,-0.703276,66.075786,-12.947032,-9.371171,1.406608,7.986931,4.504701,0,0.003501409,0
1786464119.253272,-0.010652,0.017344,-0.036270,-0.090576,0.003418,-0.994873,0.999961,-0.000614,0.006118,-0.006314,0.779267,0.594306,-0.198753,-0.006402,-0.074821,0.700660,-0.724063,76.990252,-17.587002,-14.968634,2.100110,8.743417,2.884738,0,0.003491900,0
1786464119.273278,-0.008788,0.017877,-0.030011,-0.090088,0.002930,-0.994873,0.999958,-0.000651,0.006538,-0.006464,0.719924,0.639778,-0.268997,-0.005838,-0.079453,0.748688,-0.741267,87.729495,-22.324045,-22.406287,2.868144,9.115817,1.112891,0,0.003485322,0
1786464119.293280,-0.006657,0.017078,-0.025084,-0.089355,0.002686,-0.995605,0.999954,-0.000678,0.006953,-0.006589,0.661944,0.665356,-0.345116,-0.005174,-0.082967,0.796261,-0.755650,97.956088,-26.744273,-31.462048,3.632494,9.072157,-0.633653,0,0.003480168,0
1786464119.313261,-0.004260,0.016412,-0.019225,-0.089355,0.003174,-0.996338,0.999950,-0.000692,0.007365,-0.006685,0.608791,0.671376,-0.422620,-0.004467,-0.084923,0.843456,-0.766672,107.485700,-30.569086,-41.712394,4.322471,8.681231,-2.206760,0,0.003475397,0
1786464119.333397,-0.001997,0.016146,-0.014299,-0.088867,0.003174,-0.996826,0.999947,-0.000694,0.007776,-0.006756,0.562238,0.660417,-0.497719,-0.003770,-0.085568,0.890501,-0.774870,116.230111,-33.689633,-52.673395,4.898903,8.060994,-3.532811,0,0.003478427,0
1786464119.353224,-0.000932,0.014548,-0.008573,-0.088379,0.003906,-0.998047,0.999943,-0.000689,0.008178,-0.006799,0.522646,0.636218,-0.567502,-0.003122,-0.085299,0.936631,-0.779781,124.158893,-36.102511,-63.867732,5.353041,7.326837,-4.603964,0,0.003467490,0
1786464119.373236,0.000267,0.012950,-0.002714,-0.088135,0.003174,-0.999023,0.999940,-0.000679,0.008573,-0.006812,0.489432,0.602447,-0.630482,-0.002537,-0.084562,0.981855,-0.781337,131.300706,-37.886445,-74.947003,5.693073,6.562204,-5.448000,0,0.003467158,0
1786464119.393368,0.000800,0.010553,0.003145,-0.087891,0.002930,-0.999756,0.999937,-0.000668,0.008956,-0.006796,0.461651,0.562451,-0.685947,-0.002026,-0.083549,1.025711,-0.779534,137.698897,-39.128195,-85.642116,5.937902,5.818943,-6.108599,0,0.003472060,0
1786464119.413143,0.001066,0.008423,0.009004,-0.086914,0.003662,-0.998779,0.999933,-0.000653,0.009328,-0.006751,0.438409,0.519110,-0.733703,-0.001587,-0.082049,1.068347,-0.774367,143.381124,-39.916934,-95.735279,6.105651,5.124152,-6.626330,0,0.003460493,0
1786464119.433159,0.000800,0.005493,0.014863,-0.087646,0.003906,-0.998047,0.999931,-0.000638,0.009685,-0.006676,0.418634,0.474511,-0.774328,-0.001217,-0.080548,1.109307,-0.765837,148.424946,-40.328178,-105.144648,6.209265,4.489939,-7.036374,0,0.003462058,0
1786464119.453302,0.000933,0.002697,0.020189,-0.088623,0.003662,-0.998779,0.999928,-0.000623,0.010028,-0.006575,0.401555,0.430153,-0.808530,-0.000907,-0.078994,1.148670,-0.754253,152.884668,-40.432965,-113.822991,6.262114,3.916896,-7.369990,0,0.003468676,0
1786464119.473168,0.000267,-0.000499,0.025116,-0.087891,0.003418,-0.999512,0.999925,-0.000612,0.010356,-0.006449,0.386717,0.387180,-0.836983,-0.000656,-0.077832,1.186207,-0.739845,156.789582,-40.304067,-121.730598,6.276265,3.403555,-7.645931,0,0.003461804,0
1786464119.493250,-0.000133,-0.003428,0.029910,-0.088623,0.003906,-0.999512,0.999923,-0.000602,0.010668,-0.006299,0.373453,0.346399,-0.860546,-0.000450,-0.076664,1.222065,-0.722683,160.206863,-39.973752,-128.885402,6.258457,2.948571,-7.875755,0,0.003465865,0
1786464119.513266,0.000267,-0.006491,0.034171,-0.088623,0.004150,-1.000488,0.999921,-0.000588,0.010966,-0.006128,0.361443,0.308256,-0.879964,-0.000277,-0.075118,1.256169,-0.703074,163.179427,-39.489971,-135.313161,6.214827,2.545513,-8.074967,0,0.003466131,0
1786464119.533252,0.000800,-0.009554,0.038299,-0.089111,0.004150,-1.000000,0.999919,-0.000572,0.011248,-0.005936,0.350323,0.272994,-0.895962,-0.000130,-0.073201,1.288520,-0.681096,165.758923,-38.879289,-141.059780,6.150203,2.190045,-8.248055,0,0.003465022,0
1786464119.553341,0.001998,-0.011817,0.041894,-0.089600,0.004150,-0.999268,0.999917,-0.000549,0.011519,-0.005726,0.339848,0.240688,-0.909160,0.000002,-0.070533,1.319576,-0.657055,167.990524,-38.166890,-146.175588,6.068291,1.877346,-8.402934,0,0.003468603,0
1786464119.573410,0.003463,-0.013815,0.045622,-0.090576,0.004639,-0.997803,0.999915,-0.000518,0.011779,-0.005498,0.329783,0.211381,-0.920088,0.000126,-0.066794,1.349483,-0.630871,169.913788,-37.366483,-150.704277,5.971543,1.603398,-8.543590,0,0.003470431,0
1786464119.593788,0.005460,-0.015679,0.048685,-0.091553,0.004883,-0.997314,0.999914,-0.000476,0.012030,-0.005255,0.319976,0.184906,-0.929207,0.000247,-0.061763,1.378319,-0.602928,171.568764,-36.493996,-154.706838,5.861849,1.363578,-8.675636,0,0.003485016,0
1786464119.613321,0.008123,-0.017144,0.051881,-0.091309,0.005859,-0.996582,0.999912,-0.000417,0.012274,-0.004995,0.310479,0.161319,-0.936792,0.000363,-0.054794,1.406302,-0.573143,172.973450,-35.579001,-158.201441,5.742438,1.155076,-8.800047,0,0.003459936,0
1786464119.633176,0.010387,-0.017676,0.055343,-0.092529,0.006104,-0.995850,0.999910,-0.000345,0.012515,-0.004719,0.301057,0.140277,-0.943232,0.000484,-0.046363,1.433972,-0.541371,174.173199,-34.615631,-161.264879,5.614373,0.974267,-8.916896,0,0.003454768,0
1786464119.653327,0.012784,-0.017543,0.058406,-0.093994,0.005859,-0.994873,0.999909,-0.000262,0.012757,-0.004427,0.291615,0.121508,-0.948787,0.000608,-0.036553,1.461717,-0.507845,175.198403,-33.608021,-163.953293,5.477880,0.816923,-9.028989,0,0.003463522,0
1786464119.673143,0.015447,-0.016478,0.060936,-0.094238,0.006104,-0.995117,0.999907,-0.000165,0.013004,-0.004123,0.282258,0.104920,-0.953584,0.000729,-0.025038,1.490061,-0.472866,176.064173,-32.579240,-166.291787,5.334914,0.681016,-9.138876,0,0.003455807,0
1786464119.693156,0.017178,-0.016078,0.064131,-0.094727,0.006348,-0.994873,0.999905,-0.000057,0.013252,-0.003804,0.272907,0.090282,-0.957795,0.000847,-0.012336,1.518620,-0.436053,176.795017,-31.528982,-168.325344,5.186868,0.564205,-9.243940,0,0.003458400,0
1786464119.713325,0.018110,-0.014614,0.066395,-0.095215,0.006836,-0.993164,0.999903,0.000057,0.013508,-0.003472,0.263524,0.077439,-0.961539,0.000954,0.001160,1.547999,-0.397937,177.408109,-30.459251,-170.085290,5.034133,0.464484,-9.343897,0,0.003467025,0
1786464119.733197,0.017977,-0.013682,0.068126,-0.095703,0.006104,-0.992432,0.999900,0.000169,0.013769,-0.003133,0.254115,0.066120,-0.964911,0.001034,0.014454,1.577912,-0.358834,177.921333,-29.375605,-171.614997,4.876753,0.378820,-9.441719,0,0.003460871,0
1786464119.753193,0.017977,-0.010486,0.070656,-0.096436,0.006836,-0.991943,0.999897,0.000284,0.014045,-0.002781,0.244654,0.056300,-0.967974,0.001104,0.028083,1.609631,-0.318273,178.346477,-28.278797,-172.925982,4.715708,0.307092,-9.536437,0,0.003461459,0
1786464119.773383,0.016645,-0.008755,0.071988,-0.097168,0.006592,-0.991943,0.999894,0.000392,0.014331,-0.002422,0.235114,0.047714,-0.970795,0.001149,0.040966,1.642334,-0.276948,178.698688,-27.168224,-174.058009,4.550689,0.246262,-9.628776,0,0.003470243,0
1786464119.793150,0.015314,-0.006624,0.074385,-0.097168,0.006836,-0.990967,0.999891,0.000495,0.014626,-0.002051,0.225579,0.040307,-0.973390,0.001171,0.053279,1.676239,-0.234244,178.985497,-26.055811,-175.022806,4.382771,0.195844,-9.717329,0,0.003458783,0
1786464119.813213,0.012784,-0.003295,0.076116,-0.097168,0.007812,-0.990723,0.999887,0.000588,0.014939,-0.001671,0.216043,0.033996,-0.975791,0.001170,0.064543,1.712019,-0.190535,179.216071,-24.942247,-175.835943,4.213056,0.155022,-9.802904,0,0.003462771,0
1786464119.833345,0.011186,-0.000499,0.077980,-0.097168,0.006348,-0.991455,0.999882,0.000670,0.015265,-0.001282,0.206509,0.028398,-0.978032,0.001156,0.074555,1.749416,-0.145766,179.406928,-23.829109,-176.548502,4.041490,0.119551,-9.885980,0,0.003468740,0
1786464119.853469,0.009055,0.003096,0.079711,-0.096924,0.007324,-0.991455,0.999877,0.000744,0.015609,-0.000884,0.197003,0.023700,-0.980116,0.001125,0.083743,1.788843,-0.099989,179.556889,-22.719772,-177.140622,3.868835,0.092209,-9.964680,0,0.003472887,0
1786464119.873284,0.006259,0.005626,0.081575,-0.097900,0.007568,-0.991211,0.999872,0.000806,0.015966,-0.000476,0.187406,0.019727,-0.982084,0.001072,0.091482,1.829705,-0.053136,179.674137,-21.600910,-177.636397,3.693882,0.070292,-10.039456,0,0.003462818,0
1786464119.893236,0.003995,0.008822,0.083173,-0.097168,0.008301,-0.991455,0.999866,0.000858,0.016339,-0.000061,0.177891,0.016420,-0.983913,0.001010,0.098246,1.872371,-0.005352,179.764235,-20.492938,-178.045148,3.517853,0.053444,-10.111815,0,0.003461107,0
1786464119.913516,0.002930,0.010287,0.085170,-0.097656,0.009033,-0.991211,0.999860,0.000907,0.016719,0.000365,0.168305,0.013679,-0.985640,0.000950,0.104697,1.915850,0.043589,179.834136,-19.378151,-178.381420,3.340709,0.040358,-10.179663,0,0.003473761,0
1786464119.933285,0.001732,0.012550,0.086768,-0.096924,0.009277,-0.992920,0.999853,0.000951,0.017109,0.000799,0.158816,0.011409,-0.987242,0.000886,0.110636,1.960610,0.093456,179.886866,-18.276323,-178.657608,3.162460,0.030159,-10.246371,0,0.003461530,0
1786464119.953238,0.001465,0.013083,0.088366,-0.097412,0.009521,-0.993652,0.999846,0.000995,0.017503,0.001241,0.149271,0.009516,-0.988750,0.000828,0.116564,2.005661,0.144247,179.927865,-17.169498,-178.886282,2.983618,0.022211,-10.308002,0,0.003460158,0
1786464119.973225,0.001732,0.014548,0.089431,-0.096191,0.009766,-0.994629,0.999838,0.001041,0.017904,0.001688,0.139850,0.007953,-0.990141,0.000779,0.122820,2.051534,0.195659,179.959362,-16.078483,-179.073846,2.804673,0.016056,-10.366645,0,0.003460605,0
1786464119.993368,0.003330,0.014282,0.090896,-0.096924,0.010254,-0.994873,0.999830,0.001096,0.018303,0.002142,0.130328,0.006686,-0.991448,0.000748,0.130194,2.097234,0.247921,179.984598,-14.977377,-179.225197,2.624998,0.011318,-10.420435,0,0.003467543,0
1786464120.013286,0.003729,0.014282,0.091429,-0.096191,0.009766,-0.995117,0.999821,0.001153,0.018703,0.002599,0.120863,0.005588,-0.992653,0.000718,0.137745,2.142936,0.300490,-179.995562,-13.884116,-179.355459,2.444089,0.006976,-10.471221,0,0.003463184,0
1786464120.033367,0.005327,0.012950,0.092361,-0.096191,0.010742,-0.997070,0.999812,0.001220,0.019095,0.003061,0.111382,0.004765,-0.993766,0.000702,0.146566,2.187838,0.353608,-179.980406,-12.790162,-179.452707,2.262624,0.004599,-10.519972,0,0.003466886,0
1786464120.053345,0.006792,0.011618,0.093027,-0.096436,0.010498,-0.997314,0.999803,0.001294,0.019481,0.003525,0.101846,0.004057,-0.994792,0.000693,0.156229,2.231972,0.407110,-179.967662,-11.691134,-179.536001,2.079895,0.001869,-10.563568,0,0.003465271,0
1786464120.073198,0.008523,0.009754,0.093559,-0.095703,0.010986,-0.998047,0.999794,0.001378,0.019858,0.003993,0.092360,0.003521,-0.995719,0.000692,0.167120,2.275009,0.460927,-179.957566,-10.598965,-179.598731,1.896388,0.000223,-10.604358,0,0.003458710,0
1786464120.093433,0.010653,0.007890,0.094358,-0.095215,0.010986,-0.998535,0.999784,0.001474,0.020225,0.004463,0.082885,0.003054,-0.996554,0.000704,0.179337,2.316960,0.515208,-179.947881,-9.508976,-179.653139,1.713115,-0.001703,-10.641142,0,0.003470031,0
1786464120.113280,0.011985,0.005227,0.094092,-0.095215,0.010498,-0.999023,0.999775,0.001575,0.020579,0.004933,0.073375,0.002632,-0.997301,0.000714,0.192251,2.357384,0.569332,-179.939903,-8.415871,-179.701968,1.528798,-0.003649,-10.674361,0,0.003462075,0
1786464120.133203,0.013183,0.002297,0.094758,-0.094482,0.011230,-0.999512,0.999765,0.001685,0.020918,0.005405,0.063906,0.002351,-0.997953,0.000725,0.206177,2.396086,0.623849,-179.933791,-7.328218,-179.734301,1.344126,-0.004216,-10.704139,0,0.003459267,0
1786464120.153162,0.014648,-0.001564,0.095024,-0.094482,0.011475,-0.999023,0.999756,0.001803,0.021237,0.005879,0.054382,0.002140,-0.998518,0.000738,0.221103,2.432548,0.678520,-179.928447,-6.234930,-179.758364,1.158922,-0.004980,-10.729297,0,0.003458729,0
1786464120.173146,0.014781,-0.004760,0.095690,-0.095215,0.011230,-1.000000,0.999746,0.001922,0.021541,0.006356,0.044751,0.001932,-0.998996,0.000743,0.236122,2.467167,0.733568,-179.924549,-5.129947,-179.781767,0.971727,-0.005846,-10.752445,0,0.003459364,0
1786464120.193285,0.014382,-0.008089,0.095690,-0.094971,0.011230,-0.999512,0.999736,0.002040,0.021828,0.006832,0.035089,0.001759,-0.999382,0.000737,0.251009,2.499856,0.788613,-179.922453,-4.021902,-179.801012,0.783059,-0.006123,-10.770719,0,0.003466439,0
1786464120.213207,0.014781,-0.011285,0.095823,-0.094971,0.010986,-0.999512,0.999727,0.002159,0.022099,0.007310,0.025393,0.001603,-0.999676,0.000727,0.266149,2.530700,0.843729,-179.921290,-2.910318,-179.818255,0.593365,-0.006406,-10.785876,0,0.003462536,0
1786464120.233262,0.013849,-0.014347,0.095823,-0.095459,0.010986,-0.999268,0.999717,0.002275,0.022355,0.007787,0.015605,0.001477,-0.999877,0.000705,0.280827,2.559770,0.898841,-179.921850,-1.788356,-179.831942,0.402308,-0.006095,-10.797103,0,0.003465284,0
1786464120.253191,0.013982,-0.017410,0.097021,-0.094727,0.010498,-0.998535,0.999708,0.002391,0.022595,0.008270,0.005861,0.001327,-0.999982,0.000680,0.295589,2.587073,0.954629,-179.922942,-0.671708,-179.848381,0.210613,-0.006131,-10.804216,0,0.003461938,0
1786464120.273478,0.012784,-0.019674,0.096888,-0.094482,0.010010,-0.997314,0.999698,0.002500,0.022824,0.008753,-0.003912,0.001154,-0.999991,0.000645,0.309617,2.613073,1.010332,-179.925524,0.448199,-179.867477,0.019218,-0.005881,-10.807007,0,0.003474722,0
1786464120.293405,0.011053,-0.021671,0.097554,-0.094971,0.010742,-0.997559,0.999688,0.002603,0.023043,0.009239,-0.013741,0.001112,-0.999905,0.000595,0.322932,2.637886,1.066421,-179.930062,1.574586,-179.871561,-0.173276,-0.003952,-10.807504,0,0.003469017,0
1786464120.313301,0.010254,-0.023003,0.098753,-0.095459,0.010010,-0.998047,0.999679,0.002701,0.023255,0.009731,-0.023617,0.001007,-0.999720,0.000541,0.335683,2.661938,1.123186,-179.935249,2.706447,-179.883037,-0.366758,-0.003363,-10.804482,0,0.003463373,0
1786464120.333423,0.009188,-0.023535,0.099552,-0.096436,0.010254,-0.996338,0.999668,0.002794,0.023465,0.010227,-0.033618,0.000951,-0.999434,0.000482,0.347950,2.685660,1.180410,-179.940969,3.853000,-179.888983,-0.561490,-0.001641,-10.795414,0,0.003468722,0
1786464120.353270,0.008123,-0.024467,0.099951,-0.096436,0.010742,-0.995605,0.999658,0.002884,0.023669,0.010725,-0.043619,0.000981,-0.999048,0.000419,0.359814,2.708814,1.237869,-179.946924,4.999931,-179.885113,-0.757551,0.000446,-10.783323,0,0.003461071,0
1786464120.373266,0.007324,-0.024601,0.101149,-0.096191,0.010010,-0.994385,0.999648,0.002968,0.023873,0.011229,-0.053600,0.000932,-0.998562,0.000354,0.371132,2.731892,1.296007,-179.953447,6.145058,-179.890593,-0.953077,0.001309,-10.766829,0,0.003461655,0
1786464120.393211,0.007058,-0.023535,0.103014,-0.095703,0.009277,-0.992920,0.999636,0.003050,0.024082,0.011742,-0.063517,0.000821,-0.997980,0.000293,0.382234,2.755578,1.355212,-179.960251,7.283433,-179.903193,-1.147403,0.002187,-10.746250,0,0.003459917,0
1786464120.413215,0.006658,-0.023003,0.103546,-0.096436,0.010254,-0.992188,0.999625,0.003133,0.024294,0.012259,-0.073505,0.000847,-0.997294,0.000232,0.393420,2.779524,1.414738,-179.965986,8.430590,-179.900126,-1.341578,0.004829,-10.722642,0,0.003461100,0
1786464120.433352,0.007191,-0.020739,0.105277,-0.097412,0.010254,-0.991943,0.999613,0.003218,0.024517,0.012783,-0.083565,0.000864,-0.996502,0.000179,0.404995,2.804746,1.475267,-179.970886,9.586972,-179.898214,-1.536622,0.006182,-10.695539,0,0.003467681,0
1786464120.453245,0.008256,-0.019141,0.105943,-0.097412,0.009033,-0.992676,0.999600,0.003306,0.024748,0.013311,-0.093580,0.000764,-0.995611,0.000137,0.416948,2.830901,1.536171,-179.975799,10.739195,-179.909817,-1.731776,0.006019,-10.665280,0,0.003462253,0
1786464120.473228,0.009188,-0.015945,0.106476,-0.098145,0.009277,-0.992432,0.999586,0.003399,0.024995,0.013842,-0.103630,0.000713,-0.994616,0.000102,0.429562,2.858862,1.597400,-179.979509,11.896427,-179.915707,-1.926075,0.007369,-10.630295,0,0.003461965,0
1786464120.493283,0.010520,-0.013815,0.106875,-0.097900,0.008789,-0.991699,0.999572,0.003499,0.025253,0.014374,-0.113628,0.000624,-0.993523,0.000076,0.442904,2.888037,1.658866,-179.982826,13.048971,-179.926011,-2.119694,0.007707,-10.590740,0,0.003464872,0
1786464120.513319,0.010920,-0.011551,0.107541,-0.097900,0.009033,-0.991455,0.999557,0.003601,0.025523,0.014909,-0.123588,0.000585,-0.992333,0.000049,0.456633,2.918478,1.720730,-179.985719,14.198493,-179.930658,-2.311896,0.008887,-10.547939,0,0.003466202,0
1786464120.533221,0.012118,-0.008888,0.107008,-0.097900,0.009033,-0.991699,0.999541,0.003709,0.025805,0.015442,-0.133501,0.000568,-0.991049,0.000029,0.471110,2.950428,1.782307,-179.987542,15.343906,-179.932601,-2.502687,0.009525,-10.501945,0,0.003461486,0
1786464120.553498,0.012651,-0.006757,0.107541,-0.097656,0.009033,-0.991211,0.999524,0.003820,0.026098,0.015977,-0.143365,0.000543,-0.989670,0.000009,0.485998,2.983573,1.844204,-179.989684,16.485168,-179.935583,-2.691663,0.010235,-10.451544,0,0.003473964,0
1786464120.573272,0.012784,-0.004227,0.107674,-0.096924,0.008789,-0.991943,0.999507,0.003932,0.026404,0.016513,-0.153085,0.000523,-0.988213,-0.000015,0.501009,3.018150,1.906195,-179.992166,17.611527,-179.938128,-2.878330,0.010660,-10.398825,0,0.003461908,0
1786464120.593317,0.013583,-0.001431,0.107408,-0.096924,0.008545,-0.991211,0.999489,0.004047,0.026724,0.017047,-0.162768,0.000479,-0.986664,-0.000036,0.516492,3.054316,1.968050,-179.994863,18.735178,-179.943547,-3.062205,0.011117,-10.341723,0,0.003464341,0
1786464120.613386,0.013316,0.000566,0.107275,-0.097168,0.008057,-0.991699,0.999471,0.004160,0.027054,0.017581,-0.172431,0.000402,-0.985022,-0.000063,0.531775,3.091620,2.029839,-179.999103,19.858368,-179.953090,-3.244870,0.011522,-10.282321,0,0.003467225,0
1786464120.633279,0.015314,0.002564,0.108074,-0.097900,0.009033,-0.993652,0.999451,0.004286,0.027394,0.018118,-0.182094,0.000447,-0.983281,-0.000078,0.548540,3.130014,2.092117,-179.999410,20.983462,-179.947819,-3.426690,0.013231,-10.220920,0,0.003461893,0
1786464120.653309,0.013183,0.004162,0.108473,-0.096924,0.008301,-0.993408,0.999431,0.004399,0.027741,0.018658,-0.191616,0.000410,-0.981470,-0.000116,0.564039,3.169315,2.154633,179.995679,22.094191,-179.952963,-3.605919,0.013405,-10.153526,0,0.003463723,0
1786464120.673429,0.014248,0.004960,0.107940,-0.097168,0.009033,-0.993652,0.999411,0.004520,0.028093,0.019195,-0.201132,0.000467,-0.979564,-0.000145,0.580394,3.209033,2.216867,179.993987,23.206326,-179.946570,-3.782940,0.015106,-10.084057,0,0.003468920,0
1786464120.693409,0.011985,0.005360,0.108473,-0.096436,0.009033,-0.994385,0.999390,0.004630,0.028446,0.019735,-0.210529,0.000530,-0.977588,-0.000195,0.595586,3.248950,2.279418,179.990043,24.306680,-179.940058,-3.957842,0.016180,-10.011442,0,0.003466897,0
1786464120.713389,0.012384,0.005626,0.109006,-0.096191,0.008789,-0.994629,0.999368,0.004743,0.028801,0.020277,-0.219860,0.000560,-0.975531,-0.000241,0.611060,3.289000,2.342283,179.985808,25.401620,-179.937463,-4.129957,0.016905,-9.935844,0,0.003465354,0
1786464120.733235,0.011585,0.006292,0.109006,-0.095215,0.008301,-0.995850,0.999346,0.004850,0.029158,0.020820,-0.229036,0.000551,-0.973418,-0.000291,0.626076,3.329421,2.405156,179.979879,26.480714,-179.939907,-4.298981,0.017541,-9.858317,0,0.003458471,0
1786464120.753460,0.010254,0.005626,0.109805,-0.094971,0.009033,-0.996338,0.999324,0.004954,0.029512,0.021366,-0.238163,0.000621,-0.971225,-0.000353,0.640635,3.369408,2.468503,179.974803,27.556332,-179.932924,-4.464937,0.019994,-9.777920,0,0.003469469,0
1786464120.773288,0.010653,0.004827,0.109938,-0.094971,0.008789,-0.996338,0.999301,0.005059,0.029863,0.021913,-0.247255,0.000677,-0.968950,-0.000405,0.655450,3.408923,2.531927,179.970577,28.630349,-179.927477,-4.629158,0.020655,-9.694208,0,0.003460800,0
1786464120.793431,0.009721,0.003629,0.109938,-0.094971,0.009766,-0.997070,0.999278,0.005162,0.030206,0.022460,-0.256324,0.000827,-0.966591,-0.000464,0.670055,3.447696,2.595367,179.968753,29.704119,-179.910235,-4.791584,0.022901,-9.608227,0,0.003467736,0
1786464120.813404,0.010520,0.002164,0.110470,-0.094727,0.008789,-0.997559,0.999255,0.005268,0.030543,0.023010,-0.265336,0.000852,-0.964156,-0.000513,0.684990,3.485636,2.659097,179.964135,30.773869,-179.908591,-4.952104,0.022364,-9.519009,0,0.003465672,0
1786464120.833421,0.010387,0.000566,0.110071,-0.095215,0.009766,-0.998047,0.999231,0.005375,0.030872,0.023558,-0.274372,0.000988,-0.961623,-0.000561,0.700138,3.522610,2.722609,179.963758,31.849238,-179.892594,-5.111123,0.024347,-9.427100,0,0.003466025,0
1786464120.853476,0.010786,-0.001431,0.110204,-0.095459,0.009033,-0.997559,0.999208,0.005483,0.031190,0.024106,-0.283417,0.001023,-0.958996,-0.000605,0.715418,3.558442,2.786181,179.960326,32.928511,-179.889508,-5.268996,0.023947,-9.330733,0,0.003467882,0
1786464120.873252,0.012517,-0.003562,0.109672,-0.095459,0.009521,-0.998047,0.999184,0.005602,0.031498,0.024651,-0.292428,0.001118,-0.956287,-0.000632,0.731870,3.593016,2.849446,179.961602,34.006785,-179.877744,-5.425405,0.024763,-9.232061,0,0.003457395,0
1786464120.893512,0.013450,-0.005426,0.109405,-0.094727,0.009766,-0.998291,0.999160,0.005727,0.031797,0.025194,-0.301355,0.001205,-0.953511,-0.000658,0.749015,3.626487,2.912559,179.962950,35.078046,-179.866926,-5.579003,0.025182,-9.130295,0,0.003470115,0
1786464120.913232,0.014648,-0.007556,0.108873,-0.094971,0.009766,-0.998047,0.999137,0.005858,0.032085,0.025735,-0.310272,0.001295,-0.950647,-0.000673,0.766907,3.658714,2.975356,179.966234,36.151296,-179.854883,-5.730655,0.024773,-9.025848,0,0.003456706,0
1786464120.933314,0.015846,-0.009820,0.108739,-0.094971,0.010010,-0.998047,0.999113,0.005997,0.032362,0.026274,-0.319171,0.001378,-0.947696,-0.000686,0.785628,3.689609,3.038071,179.969644,37.225689,-179.843661,-5.880403,0.024838,-8.918575,0,0.003462024,0
1786464120.953226,0.017844,-0.011817,0.108739,-0.095947,0.009766,-0.997803,0.999089,0.006145,0.032629,0.026813,-0.328133,0.001417,-0.944630,-0.000689,0.805496,3.719343,3.100772,179.972796,38.311056,-179.837550,-6.029155,0.024038,-8.808231,0,0.003458793,0
1786464120.973190,0.018510,-0.013815,0.108739,-0.095703,0.010254,-0.997314,0.999065,0.006299,0.032886,0.027352,-0.337044,0.001498,-0.941487,-0.000696,0.825964,3.747881,3.163471,179.977718,39.393887,-179.825696,-6.176080,0.024338,-8.693665,0,0.003458576,0
1786464120.993200,0.018776,-0.015146,0.108207,-0.095703,0.010498,-0.997070,0.999041,0.006455,0.033136,0.027888,-0.345924,0.001588,-0.938261,-0.000706,0.846716,3.775620,3.225862,179.982916,40.476564,-179.812371,-6.320657,0.024158,-8.576915,0,0.003460375,0
1786464121.013185,0.019442,-0.016212,0.107541,-0.095947,0.009521,-0.996094,0.999017,0.006613,0.033382,0.028420,-0.354797,0.001560,-0.934942,-0.000716,0.867685,3.802757,3.287853,179.982189,41.562137,-179.815588,-6.463188,0.022621,-8.456785,0,0.003460642,0
1786464121.033251,0.018909,-0.017011,0.106609,-0.095703,0.009521,-0.996094,0.998992,0.006769,0.033623,0.028948,-0.363610,0.001550,-0.931550,-0.000735,0.888417,3.829411,3.349307,179.981149,42.644265,-179.816723,-6.603312,0.023031,-8.334620,0,0.003464307,0
1786464121.053293,0.018776,-0.017810,0.105810,-0.096436,0.009766,-0.995850,0.998968,0.006925,0.033860,0.029472,-0.372452,0.001582,-0.928050,-0.000757,0.909164,3.855577,3.410302,179.982074,43.733978,-179.811900,-6.741615,0.023611,-8.209996,0,0.003466041,0
1786464121.073402,0.018110,-0.018475,0.105277,-0.096924,0.010254,-0.994873,0.998943,0.007079,0.034093,0.029993,-0.381305,0.001669,-0.924447,-0.000786,0.929693,3.881318,3.470996,179.985344,44.829205,-179.799207,-6.878216,0.024341,-8.081158,0,0.003470191,0
1786464121.093462,0.016512,-0.017943,0.104612,-0.097168,0.010010,-0.994385,0.998919,0.007225,0.034329,0.030510,-0.390127,0.001727,-0.920759,-0.000828,0.949303,3.907351,3.531313,179.985355,45.924870,-179.791302,-7.012622,0.024081,-7.949728,0,0.003471260,0
1786464121.113547,0.015980,-0.017676,0.104212,-0.097900,0.010010,-0.994141,0.998894,0.007368,0.034566,0.031026,-0.398960,0.001784,-0.916966,-0.000873,0.968652,3.933514,3.591406,179.985032,47.026458,-179.783630,-7.145071,0.024395,-7.815936,0,0.003473144,0
1786464121.133511,0.013716,-0.016611,0.103546,-0.098633,0.010254,-0.992676,0.998868,0.007501,0.034808,0.031539,-0.407802,0.001880,-0.913068,-0.000931,0.986784,3.960261,3.651133,179.985676,48.133778,-179.770499,-7.275532,0.025072,-7.677771,0,0.003469383,0
1786464121.153327,0.012917,-0.015812,0.102081,-0.098389,0.009766,-0.992188,0.998842,0.007629,0.035054,0.032045,-0.416553,0.001927,-0.909109,-0.000985,1.004377,3.987470,3.710025,179.983650,49.234506,-179.764650,-7.403099,0.024562,-7.537388,0,0.003460210,0
1786464121.173257,0.011852,-0.014347,0.101549,-0.098877,0.010010,-0.992188,0.998816,0.007751,0.035307,0.032548,-0.425274,0.002002,-0.905062,-0.001045,1.021450,4.015492,3.768633,179.983134,50.336207,-179.754420,-7.527832,0.025410,-7.395972,0,0.003458199,0
1786464121.193393,0.011718,-0.012084,0.099685,-0.099609,0.010498,-0.992188,0.998790,0.007874,0.035571,0.033042,-0.433993,0.002127,-0.900913,-0.001098,1.038524,4.044791,3.826205,179.987893,51.442605,-179.735317,-7.650161,0.026062,-7.252208,0,0.003465434,0
1786464121.213388,0.011852,-0.010086,0.098619,-0.099854,0.009766,-0.992676,0.998763,0.007995,0.035846,0.033530,-0.442647,0.002159,-0.896692,-0.001142,1.055537,4.075250,3.883180,179.987090,52.546013,-179.730504,-7.769682,0.024770,-7.106002,0,0.003464921,0
1786464121.233337,0.011985,-0.007956,0.096755,-0.100098,0.010010,-0.991699,0.998735,0.008118,0.036131,0.034010,-0.451251,0.002229,-0.892394,-0.001178,1.072664,4.106918,3.939116,179.991271,53.648149,-179.718167,-7.886074,0.024986,-6.956476,0,0.003462532,0
1786464121.253251,0.012917,-0.006225,0.095157,-0.100098,0.010498,-0.991211,0.998707,0.008245,0.036424,0.034481,-0.459778,0.002345,-0.888030,-0.001202,1.090436,4.139554,3.994168,-179.997833,54.745741,-179.696270,-7.999246,0.024883,-6.805367,0,0.003459264,0
1786464121.273415,0.013716,-0.003562,0.093426,-0.100342,0.010498,-0.990967,0.998679,0.008376,0.036732,0.034943,-0.468249,0.002432,-0.883592,-0.001220,1.108659,4.173711,4.048262,-179.987563,55.841601,-179.677983,-8.109209,0.023822,-6.653129,0,0.003467429,0
1786464121.293501,0.013716,-0.001431,0.091429,-0.100586,0.010010,-0.991211,0.998650,0.008506,0.037049,0.035396,-0.476659,0.002459,-0.879084,-0.001234,1.126760,4.209106,4.101233,-179.981625,56.935067,-179.669501,-8.216139,0.022210,-6.499463,0,0.003470292,0
1786464121.313452,0.014115,0.000833,0.089698,-0.100586,0.010010,-0.992188,0.998621,0.008637,0.037379,0.035839,-0.484971,0.002491,-0.874526,-0.001242,1.145093,4.245793,4.153244,-179.973590,58.021401,-179.658992,-8.319614,0.021495,-6.344897,0,0.003466661,0
1786464121.333250,0.014648,0.002564,0.087834,-0.099854,0.010498,-0.991943,0.998591,0.008772,0.037717,0.036274,-0.493134,0.002578,-0.869949,-0.001243,1.163856,4.283447,4.204223,-179.957620,59.093762,-179.636384,-8.418791,0.021056,-6.188114,0,0.003457416,0
1786464121.353273,0.013849,0.004162,0.085304,-0.100098,0.010498,-0.992676,0.998562,0.008902,0.038062,0.036696,-0.501236,0.002651,-0.865306,-0.001250,1.182118,4.322024,4.253777,-179.942981,60.163745,-179.615854,-8.514772,0.019734,-6.032452,0,0.003460031,0
1786464121.373363,0.012784,0.006425,0.083173,-0.100098,0.010254,-0.993164,0.998532,0.009026,0.038419,0.037107,-0.509251,0.002693,-0.860613,-0.001262,1.199700,4.361910,4.302140,-179.932008,61.228048,-179.601156,-8.607278,0.018340,-5.875248,0,0.003464886,0
1786464121.393391,0.012517,0.007490,0.081575,-0.099609,0.011719,-0.993164,0.998501,0.009151,0.038781,0.037511,-0.517148,0.002894,-0.855890,-0.001273,1.217452,4.402344,4.349634,-179.899771,62.282488,-179.552003,-8.695969,0.018955,-5.716521,0,0.003465912,0
1786464121.413380,0.010920,0.007757,0.079045,-0.099854,0.010498,-0.993652,0.998471,0.009266,0.039145,0.037902,-0.524993,0.002928,-0.851101,-0.001289,1.233982,4.442991,4.395668,-179.887618,63.335675,-179.536402,-8.781763,0.015218,-5.557979,0,0.003464991,0
1786464121.433336,0.009455,0.008556,0.077181,-0.099609,0.010742,-0.994141,0.998441,0.009374,0.039512,0.038284,-0.532735,0.003000,-0.846275,-0.001311,1.249715,4.484088,4.440655,-179.870471,64.381084,-179.512288,-8.863949,0.014757,-5.398187,0,0.003462906,0
1786464121.453390,0.008123,0.009088,0.075583,-0.099365,0.010742,-0.994141,0.998411,0.009474,0.039881,0.038658,-0.540385,0.003067,-0.841411,-0.001338,1.264681,4.525491,4.484742,-179.853545,65.419848,-179.488182,-8.942609,0.013849,-5.237589,0,0.003465483,0
1786464121.473413,0.007058,0.008556,0.072920,-0.099365,0.010986,-0.994385,0.998382,0.009570,0.040247,0.039020,-0.547970,0.003166,-0.836491,-0.001362,1.279021,4.566599,4.527307,-179.829121,66.455868,-179.454321,-9.018237,0.012987,-5.076662,0,0.003466110,0
1786464121.493326,0.005860,0.008556,0.070923,-0.099609,0.010986,-0.995361,0.998352,0.009660,0.040614,0.039371,-0.555493,0.003257,-0.831514,-0.001385,1.292626,4.607718,4.568733,-179.803311,67.489461,-179.419783,-9.090915,0.011530,-4.915644,0,0.003461933,0
1786464121.513412,0.003995,0.007490,0.069191,-0.099121,0.010986,-0.995850,0.998323,0.009740,0.040975,0.039714,-0.562914,0.003340,-0.826508,-0.001418,1.305151,4.648233,4.609161,-179.778306,68.515151,-179.385917,-9.159825,0.010378,-4.753057,0,0.003466128,0
1786464121.533595,0.003596,0.006692,0.066528,-0.098633,0.011230,-0.997070,0.998294,0.009819,0.041331,0.040044,-0.570230,0.003443,-0.821477,-0.001441,1.317433,4.688301,4.648063,-179.744576,69.532550,-179.342410,-9.225298,0.009318,-4.591304,0,0.003473438,0
1786464121.553424,0.002664,0.004561,0.064398,-0.098877,0.010986,-0.996582,0.998266,0.009893,0.041677,0.040364,-0.577507,0.003514,-0.816377,-0.001458,1.329060,4.727177,4.685715,-179.711239,70.550826,-179.302533,-9.288158,0.007245,-4.427739,0,0.003463822,0
1786464121.573413,0.003196,0.003629,0.061868,-0.098145,0.011719,-0.997314,0.998239,0.009970,0.042018,0.040670,-0.584659,0.003650,-0.811269,-0.001464,1.341084,4.765509,4.721925,-179.657105,71.557793,-179.237319,-9.347098,0.006484,-4.264438,0,0.003463419,0
1786464121.593270,0.004395,0.002164,0.060137,-0.097656,0.011230,-0.996826,0.998212,0.010053,0.042353,0.040968,-0.591712,0.003697,-0.806139,-0.001456,1.353669,4.803030,4.757121,-179.612504,72.557079,-179.190090,-9.402751,0.003497,-4.100614,0,0.003457493,0
1786464121.613222,0.005860,0.000566,0.058273,-0.098145,0.011963,-0.996582,0.998185,0.010145,0.042679,0.041256,-0.598742,0.003806,-0.800932,-0.001438,1.367167,4.839625,4.791242,-179.543583,73.559426,-179.114316,-9.456109,0.002612,-3.937313,0,0.003457083,0
1786464121.633478,0.007457,-0.001298,0.055609,-0.098145,0.011475,-0.996582,0.998159,0.010243,0.042997,0.041530,-0.605723,0.003825,-0.795665,-0.001407,1.381393,4.875196,4.823808,-179.484643,74.561356,-179.056854,-9.506308,-0.000460,-3.772789,0,0.003469729,0
1786464121.653271,0.009987,-0.002763,0.053079,-0.099121,0.011963,-0.997070,0.998134,0.010355,0.043308,0.041791,-0.612699,0.003888,-0.790305,-0.001353,1.397046,4.909937,4.854911,-179.396432,75.569274,-178.968395,-9.554538,-0.002101,-3.608071,0,0.003459505,0
1786464121.673416,0.014382,-0.004893,0.049351,-0.099121,0.011475,-0.997559,0.998109,0.010488,0.043610,0.042032,-0.619620,0.003856,-0.784891,-0.001269,1.414982,4.943514,4.883842,-179.312404,76.575975,-178.894223,-9.599210,-0.005522,-3.441415,0,0.003466850,0
1786464121.693292,0.016778,-0.006092,0.046421,-0.098633,0.011230,-0.996582,0.998085,0.010632,0.043906,0.042258,-0.626440,0.003798,-0.779460,-0.001173,1.434169,4.976436,4.911076,-179.219814,77.574870,-178.814609,-9.640315,-0.008028,-3.272914,0,0.003460863,0
1786464121.713270,0.017178,-0.007690,0.044025,-0.099121,0.011475,-0.996338,0.998062,0.010779,0.044195,0.042471,-0.633229,0.003775,-0.773954,-0.001084,1.453549,5.008454,4.936920,-179.102419,78.576272,-178.706702,-9.679158,-0.009528,-3.105622,0,0.003460723,0
1786464121.733524,0.018510,-0.008089,0.040562,-0.099121,0.011230,-0.996338,0.998039,0.010931,0.044482,0.042667,-0.639953,0.003721,-0.768404,-0.000990,1.473526,5.040286,4.960771,-178.973414,79.575086,-178.590083,-9.714656,-0.011995,-2.937718,0,0.003472391,0
1786464121.753303,0.016912,-0.009554,0.038032,-0.098633,0.010254,-0.995605,0.998017,0.011075,0.044761,0.042851,-0.646569,0.003589,-0.762846,-0.000911,1.492345,5.071333,4.983137,-178.863621,80.565105,-178.497785,-9.746639,-0.014841,-2.768750,0,0.003460908,0
1786464121.773233,0.015846,-0.010086,0.035769,-0.098877,0.010010,-0.995117,0.997995,0.011212,0.045038,0.043023,-0.653128,0.003471,-0.757239,-0.000845,1.510433,5.102105,5.004195,-178.730355,81.553652,-178.379697,-9.776143,-0.015448,-2.601121,0,0.003458718,0
1786464121.793232,0.013316,-0.010086,0.033505,-0.099609,0.009277,-0.994873,0.997975,0.011335,0.045315,0.043184,-0.659656,0.003321,-0.751560,-0.000798,1.526837,5.132929,5.023942,-178.594355,82.545134,-178.259908,-9.803188,-0.016495,-2.433599,0,0.003460020,0
1786464121.813561,0.010920,-0.009687,0.031375,-0.099365,0.010254,-0.994629,0.997954,0.011448,0.045592,0.043336,-0.666097,0.003336,-0.745857,-0.000767,1.541996,5.163965,5.042493,-178.321253,83.530336,-177.988282,-9.826422,-0.015018,-2.265217,0,0.003475064,0
1786464121.833381,0.007457,-0.009021,0.029510,-0.099854,0.009521,-0.993408,0.997934,0.011541,0.045873,0.043478,-0.672480,0.003293,-0.740107,-0.000752,1.554952,5.195433,5.059972,-178.012917,84.514309,-177.684777,-9.847338,-0.017304,-2.096609,0,0.003464676,0
1786464121.853286,0.004128,-0.008888,0.027513,-0.100830,0.010742,-0.992676,0.997914,0.011620,0.046154,0.043612,-0.678844,0.003420,-0.734274,-0.000753,1.566121,5.226962,5.076328,-177.414816,85.502188,-177.076408,-9.865858,-0.016495,-1.928221,0,0.003460473,0
1786464121.873326,0.000400,-0.007556,0.025382,-0.100586,0.010498,-0.992676,0.997895,0.011679,0.046440,0.043736,-0.685099,0.003509,-0.728441,-0.000768,1.575028,5.259289,5.091480,-176.555153,86.480535,-176.208458,-9.880318,-0.019232,-1.759725,0,0.003463065,0
1786464121.893386,-0.003595,-0.006624,0.023518,-0.100830,0.010742,-0.992676,0.997876,0.011717,0.046730,0.043852,-0.691280,0.003628,-0.722577,-0.000796,1.581601,5.292168,5.105582,-175.009253,87.453523,-174.650666,-9.892263,-0.020787,-1.592479,0,0.003465897,0
1786464121.913646,-0.005858,-0.004227,0.021521,-0.101318,0.010498,-0.991943,0.997857,0.011743,0.047032,0.043958,-0.697402,0.003708,-0.716670,-0.000825,1.586716,5.326463,5.118572,-171.674386,88.421245,-171.306996,-9.901554,-0.023101,-1.425278,0,0.003476517,0
1786464121.933491,-0.007589,-0.003029,0.019390,-0.101807,0.011475,-0.992676,0.997838,0.011761,0.047340,0.044054,-0.703447,0.003893,-0.710737,-0.000846,1.590893,5.361445,5.130374,-157.510543,89.359767,-157.126529,-9.908009,-0.023853,-1.259479,0,0.003466846,0
1786464121.953457,-0.007989,-0.001831,0.017127,-0.101562,0.011719,-0.991455,0.997819,0.011776,0.047653,0.044139,-0.709389,0.004061,-0.704805,-0.000855,1.594772,5.397140,5.140902,-35.169486,89.546762,-34.771101,-9.910887,-0.026844,-1.092346,0,0.003464750,0
1786464121.973305,-0.008788,0.000034,0.014597,-0.101318,0.011963,-0.991455,0.997800,0.011786,0.047976,0.044212,-0.715214,0.004218,-0.698893,-0.000853,1.598108,5.433933,5.150014,-11.855244,88.649682,-11.444252,-9.910966,-0.029904,-0.927999,0,0.003458088,0
1786464121.993414,-0.008522,0.001632,0.011534,-0.101562,0.012207,-0.991699,0.997781,0.011798,0.048306,0.044270,-0.720960,0.004361,-0.692963,-0.000835,1.601460,5.471684,5.157397,-7.390155,87.713373,-6.969028,-9.908820,-0.033046,-0.765758,0,0.003464225,0
1786464122.013400,-0.008255,0.003895,0.009670,-0.102051,0.012207,-0.992188,0.997762,0.011809,0.048649,0.044318,-0.726630,0.004460,-0.687014,-0.000807,1.604841,5.510768,5.163747,-5.482637,86.775960,-5.055707,-9.904250,-0.036298,-0.604783,0,0.003463593,0
1786464122.033650,-0.006790,0.005493,0.006607,-0.102539,0.012451,-0.992920,0.997744,0.011826,0.048999,0.044351,-0.732234,0.004551,-0.681038,-0.000758,1.608912,5.550811,5.168367,-4.452672,85.839375,-4.022234,-9.897060,-0.039017,-0.444810,0,0.003474370,0
1786464122.053404,-0.005725,0.006159,0.003678,-0.102051,0.013184,-0.993164,0.997725,0.011849,0.049354,0.044369,-0.737712,0.004689,-0.675099,-0.000692,1.613571,5.591255,5.171332,-3.871031,84.914514,-3.434585,-9.886274,-0.041433,-0.284760,0,0.003461377,0
1786464122.073361,-0.003728,0.008156,0.000881,-0.101562,0.012695,-0.993896,0.997706,0.011881,0.049718,0.044373,-0.743061,0.004715,-0.669207,-0.000609,1.619142,5.632904,5.172718,-3.398415,84.003738,-2.966395,-9.873070,-0.045895,-0.127897,0,0.003460194,0
1786464122.093409,-0.001597,0.008955,-0.002448,-0.101807,0.012451,-0.994141,0.997688,0.011921,0.050088,0.044359,-0.748335,0.004691,-0.663304,-0.000507,1.625686,5.675077,5.172202,-3.027982,83.097567,-2.606051,-9.858291,-0.048805,0.027090,0,0.003463215,0
1786464122.113298,0.000134,0.009754,-0.005643,-0.101807,0.012451,-0.993652,0.997670,0.011969,0.050462,0.044330,-0.753522,0.004659,-0.657406,-0.000391,1.633032,5.717760,5.169865,-2.747461,82.198232,-2.337279,-9.840893,-0.050916,0.181769,0,0.003458694,0
1786464122.133667,0.001732,0.010154,-0.008839,-0.101807,0.013184,-0.993408,0.997652,0.012025,0.050839,0.044284,-0.758633,0.004703,-0.651501,-0.000263,1.641236,5.760699,5.165714,-2.574901,81.303422,-2.171328,-9.821216,-0.052356,0.334727,0,0.003475771,0
1786464122.153456,0.002264,0.010953,-0.011902,-0.100830,0.012207,-0.994141,0.997635,0.012082,0.051220,0.044222,-0.763598,0.004610,-0.645675,-0.000134,1.649427,5.804175,5.159806,-2.366642,80.426895,-1.980830,-9.798278,-0.056655,0.485560,0,0.003463877,0
1786464122.173280,0.002930,0.010420,-0.014565,-0.101318,0.012207,-0.995361,0.997618,0.012141,0.051599,0.044147,-0.768501,0.004532,-0.639833,-0.000004,1.657821,5.847394,5.152361,-2.199704,79.553300,-1.830650,-9.774936,-0.057869,0.632725,0,0.003456435,0
1786464122.193331,0.002664,0.010553,-0.017494,-0.100830,0.011719,-0.995605,0.997601,0.012197,0.051978,0.044058,-0.773299,0.004416,-0.634027,0.000126,1.665816,5.890753,5.143230,-2.042494,78.690657,-1.693153,-9.748458,-0.059851,0.779815,0,0.003460480,0
1786464122.213394,0.003463,0.010553,-0.020823,-0.099854,0.011719,-0.995850,0.997585,0.012257,0.052358,0.043952,-0.777970,0.004325,-0.628286,0.000263,1.674099,5.934162,5.132192,-1.921215,77.842868,-1.590232,-9.719600,-0.060742,0.924716,0,0.003464077,0
1786464122.233438,0.003196,0.010154,-0.022954,-0.100098,0.011230,-0.995361,0.997570,0.012315,0.052736,0.043835,-0.782583,0.004198,-0.622532,0.000394,1.681997,5.977398,5.119915,-1.798500,76.998109,-1.488227,-9.690313,-0.062319,1.067472,0,0.003465936,0
1786464122.253360,0.002930,0.009621,-0.025084,-0.099365,0.010498,-0.994629,0.997555,0.012369,0.053112,0.043707,-0.787090,0.004021,-0.616825,0.000518,1.689498,6.020388,5.106398,-1.670130,76.165267,-1.384144,-9.658055,-0.063426,1.209561,0,0.003462172,0
1786464122.273280,0.001865,0.009088,-0.028014,-0.098389,0.010498,-0.994385,0.997541,0.012418,0.053485,0.043565,-0.791478,0.003902,-0.611185,0.000639,1.696234,6.063118,5.091192,-1.575970,75.346612,-1.309431,-9.623946,-0.063103,1.348699,0,0.003459242,0
1786464122.293396,0.000933,0.009088,-0.029878,-0.098389,0.010498,-0.994873,0.997527,0.012462,0.053857,0.043414,-0.795794,0.003816,-0.605555,0.000754,1.702307,6.105882,5.074917,-1.501333,74.533922,-1.250952,-9.589455,-0.063413,1.484107,0,0.003465406,0
1786464122.313372,0.000400,0.008023,-0.032275,-0.098389,0.009766,-0.995850,0.997513,0.012501,0.054225,0.043252,-0.800039,0.003669,-0.599937,0.000866,1.707780,6.148104,5.057234,-1.413264,73.727244,-1.183832,-9.553228,-0.064850,1.617752,0,0.003464056,0
1786464122.333487,-0.000399,0.007357,-0.034406,-0.098633,0.009521,-0.996582,0.997500,0.012536,0.054589,0.043078,-0.804225,0.003539,-0.594313,0.000977,1.712594,6.189993,5.038310,-1.337483,72.924057,-1.127518,-9.515654,-0.064814,1.750047,0,0.003468978,0
1786464122.353436,-0.001730,0.006425,-0.036137,-0.098389,0.009521,-0.997070,0.997488,0.012563,0.054949,0.042897,-0.808332,0.003450,-0.588715,0.001077,1.716522,6.231379,5.018377,-1.278142,72.128636,-1.083530,-9.475883,-0.064572,1.881522,0,0.003465586,0
1786464122.373385,-0.002796,0.006159,-0.038533,-0.097900,0.008545,-0.996338,0.997476,0.012583,0.055307,0.042703,-0.812350,0.003281,-0.583159,0.001177,1.719507,6.272686,4.997044,-1.200771,71.343148,-1.028005,-9.434451,-0.065948,2.012235,0,0.003463049,0
1786464122.393314,-0.003328,0.005094,-0.040264,-0.098389,0.008789,-0.995117,0.997465,0.012601,0.055660,0.042501,-0.816330,0.003192,-0.577575,0.001275,1.722073,6.313412,4.974699,-1.150569,70.557491,-0.993012,-9.392705,-0.064637,2.141424,0,0.003460271,0
1786464122.413774,-0.003595,0.004960,-0.042661,-0.097900,0.008545,-0.994873,0.997454,0.012616,0.056013,0.042288,-0.820230,0.003103,-0.572024,0.001385,1.724277,6.354111,4.950970,-1.106703,69.780199,-0.965257,-9.348267,-0.065333,2.268848,0,0.003480850,0
1786464122.433453,-0.004527,0.004162,-0.044526,-0.097656,0.008789,-0.994873,0.997444,0.012626,0.056361,0.042065,-0.824049,0.003065,-0.566509,0.001481,1.725845,6.394378,4.926160,-1.076346,69.011556,-0.945824,-9.302778,-0.065061,2.394237,0,0.003463039,0
1786464122.453410,-0.005592,0.003629,-0.047189,-0.098145,0.009277,-0.995850,0.997434,0.012631,0.056706,0.041829,-0.827817,0.003098,-0.560988,0.001584,1.726668,6.434377,4.899815,-1.067708,68.245465,-0.942853,-9.256861,-0.065739,2.516530,0,0.003461468,0
1786464122.473601,-0.006524,0.002297,-0.049319,-0.098633,0.009277,-0.995605,0.997425,0.012631,0.057045,0.041583,-0.831549,0.003121,-0.555440,0.001692,1.726763,6.473655,4.872217,-1.057761,67.479221,-0.939656,-9.209405,-0.068021,2.639134,0,0.003470251,0
1786464122.493548,-0.008388,0.001898,-0.051183,-0.098389,0.009521,-0.996338,0.997417,0.012621,0.057382,0.041328,-0.835202,0.003167,-0.549932,0.001789,1.725680,6.512731,4.843544,-1.052393,66.721739,-0.938413,-9.159643,-0.069718,2.759961,0,0.003466485,0
1786464122.513420,-0.009054,0.002164,-0.053447,-0.098633,0.009521,-0.995850,0.997408,0.012607,0.057720,0.041062,-0.838795,0.003198,-0.544435,0.001890,1.724017,6.552002,4.813569,-1.044334,65.969148,-0.936011,-9.109376,-0.071947,2.879847,0,0.003460448,0
1786464122.533367,-0.009720,0.000833,-0.055844,-0.099121,0.009766,-0.996582,0.997401,0.012589,0.058051,0.040784,-0.842344,0.003245,-0.538927,0.001997,1.721793,6.590551,4.782192,-1.041580,65.218249,-0.938040,-9.057989,-0.073798,2.997355,0,0.003459064,0
1786464122.553305,-0.010253,0.000433,-0.057841,-0.099121,0.010010,-0.994385,0.997394,0.012568,0.058380,0.040496,-0.845836,0.003305,-0.533429,0.002107,1.719122,6.628901,4.749660,-1.042057,64.471688,-0.942523,-9.004768,-0.075849,3.116671,0,0.003457680,0
1786464122.573322,-0.010119,0.000966,-0.060371,-0.099609,0.010986,-0.994141,0.997386,0.012548,0.058712,0.040196,-0.849279,0.003452,-0.527928,0.002227,1.716461,6.667574,4.715695,-1.063327,63.727833,-0.961418,-8.950881,-0.077451,3.232496,0,0.003459964,0
1786464122.593357,-0.009853,0.000433,-0.062369,-0.099854,0.010986,-0.994385,0.997380,0.012529,0.059042,0.039886,-0.852668,0.003542,-0.522436,0.002353,1.713760,6.705981,4.680567,-1.072126,62.988034,-0.973064,-8.895375,-0.081443,3.346864,0,0.003462485,0
1786464122.613433,-0.008655,0.000433,-0.064766,-0.100586,0.011230,-0.994385,0.997373,0.012514,0.059371,0.039563,-0.856019,0.003616,-0.516925,0.002492,1.711551,6.744428,4.644058,-1.078782,62.248818,-0.984944,-8.839220,-0.084273,3.460064,0,0.003466115,0
1786464122.633415,-0.008388,0.000966,-0.067029,-0.099854,0.011230,-0.994385,0.997367,0.012501,0.059704,0.039230,-0.859276,0.003655,-0.511492,0.002634,1.709316,6.783218,4.606254,-1.078770,61.522797,-0.993393,-8.780239,-0.087160,3.572328,0,0.003464830,0
1786464122.653469,-0.006125,0.001232,-0.068893,-0.099854,0.011230,-0.994385,0.997360,0.012497,0.060039,0.038886,-0.862469,0.003659,-0.506088,0.002790,1.708200,6.822195,4.567379,-1.073029,60.803413,-1.000273,-8.721615,-0.089319,3.681944,0,0.003466985,0
1786464122.673494,-0.005059,0.002697,-0.069826,-0.100098,0.011475,-0.994385,0.997353,0.012499,0.060381,0.038538,-0.865602,0.003669,-0.500710,0.002943,1.707616,6.862025,4.527994,-1.068477,60.089984,-1.007556,-8.662554,-0.090596,3.789602,0,0.003467333,0
1786464122.693373,-0.003861,0.003629,-0.071423,-0.100342,0.011719,-0.993408,0.997345,0.012506,0.060728,0.038181,-0.868679,0.003685,-0.495352,0.003096,1.707593,6.902413,4.487706,-1.065345,59.381865,-1.015797,-8.602577,-0.091943,3.896697,0,0.003461373,0
1786464122.713314,-0.002929,0.005227,-0.072622,-0.099365,0.011230,-0.991943,0.997337,0.012516,0.061083,0.037818,-0.871660,0.003626,-0.490087,0.003251,1.707923,6.943750,4.446748,-1.048160,58.688513,-1.016608,-8.540609,-0.094179,4.002618,0,0.003459537,0
1786464122.733467,-0.003062,0.006692,-0.073820,-0.099121,0.010498,-0.991211,0.997329,0.012524,0.061446,0.037449,-0.874572,0.003492,-0.484871,0.003407,1.707931,6.985972,4.405108,-1.017787,58.003979,-1.010564,-8.479396,-0.095540,4.104902,0,0.003467169,0
1786464122.753431,-0.002796,0.007357,-0.075152,-0.100098,0.011230,-0.992676,0.997320,0.012533,0.061813,0.037074,-0.877450,0.003470,-0.479643,0.003555,1.708041,7.028584,4.362721,-1.008219,57.320061,-1.015407,-8.418886,-0.093867,4.203150,0,0.003464900,0
1786464122.773381,-0.003728,0.008822,-0.076350,-0.100098,0.010498,-0.994141,0.997311,0.012536,0.062186,0.036693,-0.880258,0.003365,-0.474469,0.003698,1.707364,7.072080,4.319652,-0.983024,56.645561,-1.011186,-8.356359,-0.095667,4.300369,0,0.003462582,0
1786464122.793366,-0.005193,0.009488,-0.077682,-0.099854,0.010254,-0.994873,0.997302,0.012530,0.062563,0.036306,-0.882997,0.003266,-0.469351,0.003835,1.705668,7.115989,4.275821,-0.959286,55.980453,-1.007507,-8.293217,-0.095549,4.396362,0,0.003462295,0
1786464122.813475,-0.007323,0.010420,-0.079546,-0.099854,0.009521,-0.994873,0.997292,0.012512,0.062944,0.035910,-0.885677,0.003122,-0.464274,0.003971,1.702441,7.160487,4.230911,-0.928269,55.322595,-1.000333,-8.230094,-0.096160,4.490939,0,0.003467389,0
1786464122.833516,-0.008921,0.010953,-0.080745,-0.099365,0.009033,-0.994385,0.997283,0.012485,0.063328,0.035509,-0.888289,0.002971,-0.459257,0.004099,1.698083,7.205324,4.185307,-0.896056,54.674592,-0.992002,-8.166074,-0.095417,4.584351,0,0.003468322,0
1786464122.853551,-0.010652,0.011352,-0.082742,-0.099365,0.009033,-0.993408,0.997273,0.012447,0.063714,0.035098,-0.890848,0.002876,-0.454272,0.004227,1.692520,7.250425,4.138552,-0.874506,54.032534,-0.989664,-8.102408,-0.094121,4.676152,0,0.003468809,0
1786464122.873358,-0.012916,0.011352,-0.085405,-0.098633,0.008545,-0.993408,0.997264,0.012397,0.064099,0.034675,-0.893331,0.002764,-0.449369,0.004354,1.685335,7.295582,4.090247,-0.850594,53.402834,-0.986303,-8.037492,-0.094258,4.765479,0,0.003459401,0
1786464122.893405,-0.015313,0.011752,-0.086204,-0.098633,0.009521,-0.993652,0.997254,0.012336,0.064486,0.034249,-0.895763,0.002813,-0.444501,0.004477,1.676802,7.340954,4.041501,-0.854465,52.779165,-0.996694,-7.973732,-0.092660,4.852039,0,0.003462577,0
1786464122.913488,-0.016245,0.011219,-0.087402,-0.098145,0.009521,-0.995117,0.997245,0.012270,0.064871,0.033817,-0.898131,0.002846,-0.439694,0.004601,1.667576,7.386038,3.992049,-0.855488,52.164894,-1.005780,-7.909017,-0.094569,4.936006,0,0.003466469,0
1786464122.933477,-0.017310,0.012151,-0.088734,-0.097900,0.009277,-0.995361,0.997235,0.012197,0.065260,0.033379,-0.900441,0.002840,-0.434943,0.004722,1.657526,7.431683,3.941832,-0.849972,51.559502,-1.011437,-7.844758,-0.096333,5.019004,0,0.003465430,0
1786464122.953477,-0.018242,0.011219,-0.088601,-0.097412,0.009277,-0.995605,0.997226,0.012119,0.065644,0.032942,-0.902697,0.002834,-0.430241,0.004833,1.646873,7.476789,3.891670,-0.843791,50.961837,-1.015649,-7.780176,-0.096981,5.100419,0,0.003465075,0
1786464122.973447,-0.018109,0.011219,-0.089533,-0.097656,0.009277,-0.996338,0.997216,0.012041,0.066028,0.032501,-0.904911,0.002823,-0.425562,0.004947,1.636129,7.521910,3.840961,-0.837121,50.368607,-1.020063,-7.716353,-0.097517,5.179521,0,0.003463589,0
1786464122.993542,-0.017576,0.010420,-0.089400,-0.097168,0.010010,-0.995361,0.997206,0.011966,0.066408,0.032060,-0.907077,0.002893,-0.420924,0.005061,1.625737,7.566548,3.790324,-0.843709,49.781853,-1.030793,-7.651420,-0.097143,5.259199,0,0.003467765,0
1786464123.013428,-0.016777,0.010154,-0.090598,-0.096924,0.010010,-0.995117,0.997195,0.011895,0.066787,0.031613,-0.909194,0.002928,-0.416330,0.005176,1.615629,7.611052,3.738983,-0.844841,49.202145,-1.039227,-7.586610,-0.098826,5.336552,0,0.003461975,0
1786464123.033337,-0.016644,0.009488,-0.090998,-0.097656,0.009277,-0.995605,0.997185,0.011823,0.067163,0.031163,-0.911287,0.002858,-0.411728,0.005292,1.605336,7.655201,3.687374,-0.829320,48.622811,-1.040082,-7.522783,-0.100769,5.411630,0,0.003458640,0
1786464123.053393,-0.015446,0.008423,-0.091264,-0.096924,0.009766,-0.996826,0.997175,0.011757,0.067534,0.030712,-0.913323,0.002855,-0.407189,0.005415,1.595718,7.698728,3.635599,-0.825019,48.052713,-1.047135,-7.456737,-0.099539,5.485378,0,0.003462378,0
1786464123.073540,-0.013715,0.007357,-0.092063,-0.096680,0.010010,-0.997070,0.997165,0.011700,0.067900,0.030257,-0.915318,0.002865,-0.402683,0.005548,1.586986,7.741650,3.583343,-0.823519,47.487926,-1.056837,-7.391446,-0.099728,5.558260,0,0.003469056,0
1786464123.093485,-0.012383,0.005626,-0.092729,-0.096436,0.009521,-0.997314,0.997155,0.011648,0.068257,0.029797,-0.917273,0.002795,-0.398209,0.005679,1.578805,7.783601,3.530658,-0.809690,46.928404,-1.060926,-7.325953,-0.100749,5.629918,0,0.003465512,0
1786464123.113382,-0.011185,0.004827,-0.092995,-0.096924,0.009033,-0.996826,0.997145,0.011602,0.068611,0.029336,-0.919202,0.002675,-0.393734,0.005809,1.571117,7.825113,3.477787,-0.788273,46.369989,-1.061797,-7.261251,-0.100373,5.700877,0,0.003460749,0
1786464123.133399,-0.009853,0.003895,-0.093927,-0.096924,0.008545,-0.995850,0.997135,0.011560,0.068961,0.028870,-0.921098,0.002524,-0.389278,0.005950,1.563958,7.866117,3.424345,-0.763133,45.815193,-1.062759,-7.195458,-0.099254,5.771574,0,0.003462328,0
1786464123.153532,-0.010119,0.002697,-0.094327,-0.096680,0.009277,-0.996338,0.997125,0.011518,0.069304,0.028402,-0.922954,0.002503,-0.384854,0.006092,1.556661,7.906420,3.370664,-0.757869,45.265370,-1.072315,-7.129166,-0.096532,5.839720,0,0.003468406,0
1786464123.173536,-0.008921,0.001898,-0.095259,-0.096680,0.009277,-0.995605,0.997115,0.011482,0.069644,0.027928,-0.924776,0.002474,-0.380453,0.006234,1.549899,7.946280,3.316424,-0.751508,44.719497,-1.081623,-7.063074,-0.096555,5.907794,0,0.003467524,0
1786464123.193326,-0.009187,0.001232,-0.095392,-0.096924,0.009033,-0.995850,0.997105,0.011444,0.069980,0.027454,-0.926565,0.002418,-0.376072,0.006363,1.542854,7.985765,3.262084,-0.740328,44.177203,-1.087407,-6.997125,-0.096687,5.973722,0,0.003457708,0
1786464123.213372,-0.009187,0.000167,-0.096590,-0.097168,0.008545,-0.996094,0.997095,0.011404,0.070312,0.026975,-0.928326,0.002320,-0.371704,0.006507,1.535555,8.024670,3.207017,-0.724016,43.637547,-1.093111,-6.930873,-0.096893,6.038652,0,0.003461265,0
1786464123.233541,-0.008655,-0.000499,-0.096990,-0.097168,0.008301,-0.996338,0.997085,0.011366,0.070640,0.026492,-0.930053,0.002215,-0.367359,0.006655,1.528414,8.063204,3.151696,-0.707026,43.101870,-1.099175,-6.864189,-0.095895,6.102611,0,0.003469148,0
1786464123.253441,-0.007989,-0.000765,-0.098321,-0.097412,0.008301,-0.996338,0.997075,0.011331,0.070967,0.026003,-0.931747,0.002131,-0.363039,0.006800,1.521470,8.101604,3.095594,-0.693159,42.570096,-1.106322,-6.797655,-0.094340,6.165665,0,0.003463674,0
1786464123.273397,-0.008788,-0.001431,-0.099387,-0.097900,0.008545,-0.994629,0.997065,0.011292,0.071290,0.025510,-0.933418,0.002106,-0.358716,0.006948,1.513933,8.139632,3.038863,-0.687878,42.038941,-1.117253,-6.731222,-0.093288,6.229357,0,0.003461913,0
1786464123.293618,-0.008921,-0.001964,-0.101118,-0.098633,0.008545,-0.994629,0.997056,0.011250,0.071611,0.025007,-0.935070,0.002088,-0.354385,0.007114,1.506089,8.177380,2.981112,-0.684555,41.507648,-1.131200,-6.664512,-0.093674,6.290634,0,0.003471871,0
1786464123.313390,-0.008655,-0.001964,-0.102716,-0.098877,0.008545,-0.994385,0.997046,0.011210,0.071932,0.024496,-0.936687,0.002064,-0.350085,0.007270,1.498187,8.215150,2.922430,-0.679872,40.981126,-1.143447,-6.596832,-0.093690,6.351475,0,0.003460241,0
1786464123.333459,-0.008788,-0.001564,-0.105246,-0.098633,0.008545,-0.993652,0.997035,0.011167,0.072256,0.023973,-0.938263,0.002051,-0.345835,0.007454,1.489933,8.253182,2.862283,-0.678051,40.461641,-1.160254,-6.528708,-0.094228,6.411582,0,0.003464130,0
1786464123.353379,-0.008388,-0.001564,-0.106178,-0.098633,0.009277,-0.994629,0.997025,0.011127,0.072579,0.023446,-0.939802,0.002116,-0.341628,0.007633,1.481868,8.291208,2.801606,-0.687080,39.948020,-1.180457,-6.461243,-0.093764,6.468637,0,0.003460671,0
1786464123.373496,-0.009187,-0.000632,-0.107642,-0.099121,0.010010,-0.994873,0.997014,0.011082,0.072907,0.022911,-0.941312,0.002250,-0.337440,0.007823,1.473253,8.329769,2.740102,-0.705929,39.437625,-1.205389,-6.394611,-0.095205,6.524995,0,0.003466532,0
1786464123.393441,-0.009587,0.000433,-0.108042,-0.098877,0.009521,-0.993652,0.997002,0.011035,0.073240,0.022375,-0.942782,0.002277,-0.333306,0.008000,1.464227,8.368953,2.678364,-0.709114,38.934648,-1.223059,-6.327256,-0.098700,6.581846,0,0.003463605,0
1786464123.413371,-0.010386,0.001498,-0.108708,-0.099121,0.009033,-0.992920,0.996990,0.010982,0.073578,0.021835,-0.944221,0.002237,-0.329205,0.008174,1.454528,8.408763,2.616237,-0.702713,38.436519,-1.236907,-6.260870,-0.100338,6.636824,0,0.003460734,0
1786464123.433469,-0.010918,0.002963,-0.108175,-0.097900,0.009766,-0.992188,0.996977,0.010927,0.073924,0.021299,-0.945606,0.002298,-0.325200,0.008343,1.444626,8.449381,2.554450,-0.710011,37.950775,-1.255141,-6.193334,-0.099411,6.690678,0,0.003465708,0
1786464123.453534,-0.010652,0.004295,-0.107776,-0.098389,0.009521,-0.992188,0.996962,0.010873,0.074276,0.020765,-0.946965,0.002300,-0.321217,0.008502,1.434778,8.490757,2.492898,-0.708829,37.468342,-1.269205,-6.128686,-0.101024,6.741938,0,0.003468115,0
1786464123.473365,-0.011185,0.007357,-0.106843,-0.096924,0.009033,-0.992188,0.996946,0.010815,0.074644,0.020236,-0.948262,0.002240,-0.317365,0.008639,1.424581,8.533876,2.431913,-0.698185,37.002587,-1.277574,-6.062392,-0.101639,6.792095,0,0.003459894,0
1786464123.493349,-0.010386,0.008822,-0.105645,-0.097168,0.009033,-0.992188,0.996929,0.010762,0.075019,0.019712,-0.949530,0.002190,-0.313545,0.008772,1.414852,8.577812,2.371633,-0.688856,36.541288,-1.286028,-5.999457,-0.100498,6.840220,0,0.003460260,0
1786464123.513492,-0.011052,0.010686,-0.104979,-0.097656,0.008545,-0.992676,0.996911,0.010704,0.075403,0.019192,-0.950774,0.002098,-0.309751,0.008901,1.404629,8.622814,2.311741,-0.673862,36.083819,-1.292281,-5.937023,-0.100287,6.886790,0,0.003467306,0
1786464123.533337,-0.010386,0.012018,-0.104580,-0.097412,0.008545,-0.993652,0.996892,0.010649,0.075794,0.018675,-0.951981,0.002025,-0.306018,0.009015,1.394739,8.668567,2.252090,-0.660760,35.634276,-1.297522,-5.873880,-0.098288,6.932120,0,0.003459915,0
1786464123.553466,-0.010119,0.013616,-0.103781,-0.096924,0.007568,-0.993408,0.996871,0.010594,0.076193,0.018161,-0.953151,0.001855,-0.302350,0.009135,1.384844,8.715238,2.192892,-0.635299,35.193320,-1.299728,-5.811341,-0.097907,6.977292,0,0.003466425,0
1786464123.573500,-0.009853,0.014415,-0.102449,-0.096191,0.007080,-0.993652,0.996850,0.010540,0.076596,0.017653,-0.954285,0.001674,-0.298752,0.009240,1.375068,8.762352,2.134456,-0.607860,34.761179,-1.299786,-5.749287,-0.094960,7.020781,0,0.003467298,0
1786464123.593472,-0.009320,0.015480,-0.101783,-0.095215,0.006592,-0.994141,0.996828,0.010487,0.077004,0.017149,-0.955377,0.001484,-0.295238,0.009340,1.365511,8.810070,2.076401,-0.579493,34.339790,-1.299244,-5.687898,-0.091742,7.062668,0,0.003465324,0
1786464123.613476,-0.009853,0.016146,-0.100585,-0.094971,0.006104,-0.994385,0.996805,0.010432,0.077415,0.016651,-0.956441,0.001297,-0.291771,0.009430,1.355596,8.858157,2.019027,-0.551335,33.924384,-1.297912,-5.628424,-0.088511,7.103311,0,0.003465193,0
1786464123.633569,-0.010652,0.015746,-0.100452,-0.094971,0.006836,-0.995361,0.996782,0.010373,0.077825,0.016154,-0.957483,0.001264,-0.288331,0.009522,1.345257,8.905994,1.961730,-0.543623,33.512569,-1.303219,-5.569528,-0.084242,7.142313,0,0.003468908,0
1786464123.653401,-0.012117,0.015080,-0.100319,-0.096191,0.006836,-0.996094,0.996759,0.010307,0.078231,0.015659,-0.958518,0.001248,-0.284867,0.009599,1.333976,8.953443,1.904486,-0.537657,33.098221,-1.307305,-5.511988,-0.083461,7.180801,0,0.003460557,0
1786464123.673753,-0.014114,0.013349,-0.100718,-0.095703,0.007568,-0.998291,0.996736,0.010231,0.078628,0.015162,-0.959528,0.001345,-0.281443,0.009699,1.321540,8.999886,1.846992,-0.547391,32.688950,-1.318793,-5.451982,-0.082841,7.217671,0,0.003476439,0
1786464123.693390,-0.016644,0.010953,-0.102449,-0.097168,0.007812,-0.999023,0.996714,0.010142,0.079013,0.014657,-0.960538,0.001452,-0.277974,0.009779,1.307409,9.044968,1.788451,-0.557484,32.274829,-1.327886,-5.394070,-0.084374,7.255214,0,0.003457904,0
1786464123.713341,-0.019174,0.007490,-0.104713,-0.096436,0.007812,-1.000000,0.996693,0.010039,0.079381,0.014143,-0.961522,0.001550,-0.274546,0.009890,1.291531,9.088086,1.728539,-0.567505,31.865876,-1.340686,-5.332869,-0.086968,7.292569,0,0.003457340,0
1786464123.733542,-0.022237,0.004960,-0.107376,-0.096191,0.008545,-0.999512,0.996674,0.009920,0.079736,0.013616,-0.962488,0.001733,-0.271134,0.010029,1.273664,9.129764,1.667053,-0.589394,31.459220,-1.360036,-5.272730,-0.088924,7.330374,0,0.003467616,0
1786464123.753321,-0.025166,0.000300,-0.109240,-0.096680,0.008545,-0.998779,0.996656,0.009786,0.080067,0.013081,-0.963449,0.001871,-0.267694,0.010158,1.253821,9.168784,1.604409,-0.604894,31.049684,-1.376211,-5.213061,-0.092759,7.368005,0,0.003457309,0
1786464123.773296,-0.027297,-0.001964,-0.111504,-0.096191,0.007812,-0.998535,0.996638,0.009640,0.080388,0.012535,-0.964386,0.001896,-0.264290,0.010312,1.232337,9.206533,1.540392,-0.606561,30.644870,-1.391456,-5.152102,-0.096780,7.404747,0,0.003457894,0
1786464123.793329,-0.029694,-0.006225,-0.113901,-0.096924,0.008301,-0.999512,0.996622,0.009480,0.080687,0.011978,-0.965319,0.001985,-0.260854,0.010482,1.209197,9.241846,1.474925,-0.616841,30.236648,-1.410890,-5.092443,-0.097526,7.439634,0,0.003460862,0
1786464123.813283,-0.029960,-0.009021,-0.114700,-0.095947,0.010010,-0.999756,0.996607,0.009321,0.080972,0.011418,-0.966226,0.002250,-0.257464,0.010654,1.185983,9.275517,1.408990,-0.649553,29.834041,-1.436502,-5.030668,-0.097678,7.475033,0,0.003459690,0
1786464123.833319,-0.030226,-0.011817,-0.115099,-0.096191,0.009521,-0.999023,0.996593,0.009159,0.081243,0.010855,-0.967123,0.002373,-0.254067,0.010830,1.162386,9.307581,1.342763,-0.663982,29.431102,-1.457546,-4.970692,-0.103454,7.510463,0,0.003462313,0
1786464123.853335,-0.029028,-0.013815,-0.115232,-0.095947,0.010010,-0.997803,0.996579,0.009003,0.081505,0.010292,-0.968003,0.002507,-0.250686,0.011007,1.139426,9.338476,1.276436,-0.679637,29.030492,-1.478930,-4.910106,-0.105189,7.545983,0,0.003463416,0
1786464123.873345,-0.026498,-0.015413,-0.114966,-0.095947,0.009521,-0.996582,0.996565,0.008859,0.081758,0.009729,-0.968867,0.002521,-0.247317,0.011185,1.117762,9.368443,1.210222,-0.680032,28.631688,-1.496431,-4.849965,-0.107828,7.580889,0,0.003464031,0
1786464123.893333,-0.024101,-0.016744,-0.114966,-0.096680,0.009277,-0.995361,0.996552,0.008725,0.082005,0.009164,-0.969723,0.002483,-0.243932,0.011365,1.097321,9.397634,1.143974,-0.673816,28.231589,-1.512416,-4.790632,-0.107971,7.615218,0,0.003463518,0
1786464123.913313,-0.022636,-0.017810,-0.114700,-0.096924,0.009521,-0.995117,0.996538,0.008599,0.082247,0.008601,-0.970563,0.002476,-0.240558,0.011544,1.077682,9.426192,1.077864,-0.671203,27.832995,-1.529170,-4.730450,-0.106770,7.648215,0,0.003462832,0
1786464123.933313,-0.021438,-0.019141,-0.115366,-0.097168,0.009766,-0.996582,0.996524,0.008479,0.082482,0.008034,-0.971387,0.002490,-0.237199,0.011730,1.058605,9.453975,1.011349,-0.671500,27.436576,-1.547615,-4.670153,-0.106252,7.678964,0,0.003463130,0
1786464123.953340,-0.019041,-0.020340,-0.116963,-0.099121,0.010010,-0.996582,0.996510,0.008369,0.082712,0.007458,-0.972211,0.002513,-0.233789,0.011933,1.040665,9.481070,0.943885,-0.673270,27.034289,-1.568308,-4.611633,-0.106037,7.710603,0,0.003464533,0
1786464123.973311,-0.016777,-0.020606,-0.117496,-0.098877,0.010010,-0.996582,0.996496,0.008270,0.082940,0.006878,-0.973012,0.002514,-0.230419,0.012141,1.023893,9.508003,0.876102,-0.672195,26.637261,-1.588917,-4.550059,-0.106147,7.742187,0,0.003463204,0
1786464123.993297,-0.014913,-0.020340,-0.117896,-0.100098,0.010010,-0.995850,0.996482,0.008180,0.083170,0.006296,-0.973805,0.002501,-0.227036,0.012353,1.008053,9.535079,0.808079,-0.669482,26.238986,-1.609570,-4.490631,-0.105917,7.773621,0,0.003462783,0
1786464124.013300,-0.013049,-0.020073,-0.119227,-0.100342,0.010010,-0.993652,0.996467,0.008098,0.083401,0.005706,-0.974580,0.002483,-0.223674,0.012578,0.993072,9.562307,0.739276,-0.666379,25.843469,-1.631769,-4.429762,-0.105510,7.806195,0,0.003463266,0
1786464124.033309,-0.008655,-0.018342,-0.119893,-0.099854,0.010742,-0.991699,0.996450,0.008038,0.083641,0.005112,-0.975328,0.002535,-0.220372,0.012816,0.980589,9.590509,0.670116,-0.672241,25.455156,-1.657526,-4.368697,-0.103766,7.837859,0,0.003463829,0
1786464124.053317,-0.003861,-0.015013,-0.120159,-0.099854,0.010254,-0.989990,0.996432,0.008001,0.083897,0.004514,-0.976053,0.002480,-0.217127,0.013062,0.970690,9.620618,0.600815,-0.665074,25.074063,-1.681294,-4.309353,-0.104502,7.868197,0,0.003464243,0
1786464124.073422,0.004395,-0.010619,-0.118961,-0.099854,0.010986,-0.988281,0.996411,0.008006,0.084176,0.003919,-0.976753,0.002477,-0.213941,0.013313,0.965684,9.653215,0.532264,-0.664447,24.700114,-1.707226,-4.251222,-0.101295,7.897671,0,0.003468711,0
1786464124.093438,0.009854,-0.005293,-0.117097,-0.098877,0.010254,-0.987549,0.996387,0.008038,0.084481,0.003331,-0.977418,0.002342,-0.210867,0.013549,0.963841,9.688854,0.464827,-0.647237,24.339794,-1.727930,-4.193265,-0.100934,7.925076,0,0.003468240,0
1786464124.113357,0.014382,0.000034,-0.113635,-0.098877,0.009521,-0.986572,0.996360,0.008093,0.084812,0.002759,-0.978058,0.002118,-0.207866,0.013752,0.964770,9.727523,0.399429,-0.618441,23.988364,-1.742553,-4.138325,-0.098036,7.951386,0,0.003463782,0
1786464124.133425,0.017311,0.005493,-0.109640,-0.098145,0.009277,-0.987549,0.996330,0.008164,0.085171,0.002206,-0.978668,0.001903,-0.204967,0.013931,0.967695,9.769287,0.336394,-0.590180,23.649259,-1.754636,-4.083926,-0.093151,7.974728,0,0.003466741,0
1786464124.153442,0.019974,0.011885,-0.104447,-0.097412,0.009033,-0.988037,0.996297,0.008250,0.085562,0.001677,-0.979246,0.001693,-0.202178,0.014064,0.972585,9.814670,0.276431,-0.561776,23.323135,-1.761628,-4.031519,-0.088229,7.997290,0,0.003466831,0
1786464124.173387,0.021306,0.017344,-0.098987,-0.097168,0.009033,-0.986816,0.996261,0.008345,0.085979,0.001176,-0.979802,0.001532,-0.199465,0.014148,0.978735,9.863133,0.219691,-0.538224,23.006125,-1.764035,-3.981318,-0.083234,8.020406,0,0.003463801,0
1786464124.193703,0.023303,0.024402,-0.093528,-0.096924,0.007812,-0.985840,0.996222,0.008450,0.086431,0.000701,-0.980331,0.001245,-0.196847,0.014204,0.986357,9.915609,0.166162,-0.498907,22.700547,-1.760328,-3.932751,-0.080178,8.042232,0,0.003477347,0
1786464124.213428,0.024368,0.030127,-0.087802,-0.095947,0.007812,-0.985840,0.996179,0.008563,0.086912,0.000254,-0.980832,0.001035,-0.194336,0.014192,0.995135,9.971315,0.116019,-0.467672,22.407545,-1.750554,-3.884684,-0.073401,8.062244,0,0.003462355,0
1786464124.233507,0.023703,0.035454,-0.081677,-0.094971,0.006592,-0.986328,0.996134,0.008674,0.087419,-0.000162,-0.981305,0.000737,-0.191936,0.014147,1.003948,10.030035,0.069463,-0.425389,22.127879,-1.735066,-3.838657,-0.069484,8.080568,0,0.003466182,0
1786464124.253384,0.020241,0.039182,-0.076084,-0.094971,0.006348,-0.988525,0.996087,0.008771,0.087944,-0.000548,-0.981761,0.000528,-0.189598,0.014048,1.011278,10.090842,0.026192,-0.392901,21.855358,-1.715407,-3.795148,-0.063273,8.096236,0,0.003460414,0
1786464124.273520,0.014382,0.042511,-0.070491,-0.093750,0.006104,-0.991699,0.996038,0.008840,0.088486,-0.000904,-0.982192,0.000403,-0.187366,0.013911,1.015774,10.153506,-0.013795,-0.369982,21.595284,-1.693405,-3.751539,-0.059050,8.110171,0,0.003467100,0
1786464124.293487,0.008922,0.043976,-0.064499,-0.093506,0.004639,-0.994873,0.995988,0.008883,0.089034,-0.001228,-0.982608,0.000185,-0.185183,0.013719,1.017516,10.216968,-0.050318,-0.334872,21.341059,-1.662923,-3.710341,-0.057398,8.123334,0,0.003464953,0
1786464124.313503,0.001732,0.044109,-0.059439,-0.092041,0.004395,-0.996582,0.995938,0.008893,0.089584,-0.001523,-0.983007,0.000073,-0.183073,0.013490,1.015606,10.280457,-0.083903,-0.312146,21.095352,-1.630625,-3.668605,-0.052966,8.137471,0,0.003465451,0
1786464124.333415,-0.005193,0.044109,-0.053980,-0.090820,0.004150,-0.998047,0.995889,0.008870,0.090133,-0.001788,-0.983390,0.000035,-0.181022,0.013219,1.010232,10.343891,-0.114319,-0.297601,20.856616,-1.595008,-3.628315,-0.050396,8.151192,0,0.003461358,0
1786464124.353436,-0.012649,0.041712,-0.048520,-0.088867,0.003174,-0.997559,0.995840,0.008811,0.090670,-0.002023,-0.983759,-0.000036,-0.179028,0.012911,1.000985,10.405906,-0.141612,-0.278622,20.624455,-1.554505,-3.588027,-0.050017,8.166412,0,0.003462943,0
1786464124.373374,-0.020106,0.039182,-0.043327,-0.088623,0.003418,-0.998779,0.995793,0.008718,0.091194,-0.002228,-0.984125,0.000020,-0.177033,0.012565,0.987990,10.466414,-0.165912,-0.274319,20.392183,-1.512309,-3.550317,-0.047684,8.179426,0,0.003460565,0
1786464124.393582,-0.025965,0.034522,-0.038800,-0.088623,0.004639,-1.001221,0.995747,0.008598,0.091695,-0.002408,-0.984490,0.000275,-0.175014,0.012196,0.972216,10.524190,-0.187604,-0.293552,20.156964,-1.471720,-3.512509,-0.046651,8.191193,0,0.003470317,0
1786464124.413427,-0.031292,0.027997,-0.036137,-0.089111,0.005371,-1.004150,0.995705,0.008454,0.092163,-0.002573,-0.984862,0.000595,-0.172936,0.011816,0.953685,10.578193,-0.207809,-0.320474,19.914840,-1.431015,-3.474086,-0.049719,8.202670,0,0.003462194,0
1786464124.433510,-0.033555,0.020673,-0.033473,-0.089844,0.006348,-1.007568,0.995666,0.008300,0.092594,-0.002723,-0.985240,0.000972,-0.170791,0.011437,0.934173,10.627961,-0.226525,-0.354175,19.664872,-1.391503,-3.434730,-0.053516,8.213920,0,0.003466174,0
1786464124.453381,-0.032357,0.012284,-0.032408,-0.090576,0.007812,-1.009033,0.995630,0.008154,0.092984,-0.002869,-0.985628,0.001416,-0.168562,0.011074,0.915557,10.672896,-0.244681,-0.396377,19.405225,-1.355174,-3.393709,-0.057250,8.227514,0,0.003460190,0
1786464124.473514,-0.030093,0.003895,-0.032142,-0.089600,0.007812,-1.008789,0.995598,0.008018,0.093332,-0.003015,-0.986015,0.001729,-0.166300,0.010742,0.898183,10.713022,-0.262771,-0.423525,19.142064,-1.319771,-3.349343,-0.063881,8.243149,0,0.003466795,0
1786464124.493449,-0.024767,-0.005559,-0.032275,-0.088379,0.008301,-1.007812,0.995570,0.007909,0.093632,-0.003164,-0.986403,0.001984,-0.164003,0.010443,0.883842,10.747727,-0.281020,-0.444465,18.874941,-1.287059,-3.303828,-0.066886,8.259629,0,0.003463360,0
1786464124.513423,-0.019041,-0.014614,-0.031343,-0.087891,0.007324,-1.006104,0.995547,0.007827,0.093888,-0.003311,-0.986794,0.002019,-0.161651,0.010168,0.872680,10.777248,-0.298837,-0.439672,18.601884,-1.252733,-3.258382,-0.070274,8.276840,0,0.003462457,0
1786464124.533407,-0.010519,-0.022736,-0.030677,-0.088623,0.008057,-1.004883,0.995526,0.007788,0.094103,-0.003460,-0.987192,0.002096,-0.159217,0.009919,0.866515,10.802101,-0.316324,-0.440373,18.319423,-1.222386,-3.213256,-0.067225,8.293667,0,0.003462174,0
1786464124.553355,-0.001198,-0.029261,-0.029745,-0.089355,0.007324,-1.004150,0.995508,0.007795,0.094285,-0.003608,-0.987593,0.002017,-0.156723,0.009694,0.865655,10.823216,-0.333344,-0.423176,18.030184,-1.191861,-3.166829,-0.066313,8.310181,0,0.003460443,0
1786464124.573452,0.007457,-0.035253,-0.027082,-0.091064,0.006348,-1.004150,0.995493,0.007845,0.094437,-0.003748,-0.988002,0.001804,-0.154142,0.009473,0.869882,10.840885,-0.348890,-0.390128,17.731138,-1.159530,-3.120255,-0.062730,8.326075,0,0.003465473,0
1786464124.593412,0.015314,-0.040313,-0.025084,-0.092041,0.006836,-1.002686,0.995480,0.007935,0.094564,-0.003882,-0.988411,0.001688,-0.151508,0.009259,0.878893,10.855633,-0.363303,-0.368839,17.425991,-1.129984,-3.071524,-0.055258,8.343609,0,0.003463431,0
1786464124.613359,0.021572,-0.044707,-0.024019,-0.093506,0.007568,-1.001465,0.995468,0.008058,0.094669,-0.004013,-0.988822,0.001680,-0.148814,0.009059,0.891713,10.867845,-0.377115,-0.360847,17.113837,-1.104134,-3.022271,-0.049802,8.360888,0,0.003461322,0
1786464124.633376,0.026898,-0.048436,-0.024951,-0.093750,0.008545,-0.999268,0.995458,0.008209,0.094755,-0.004152,-0.989229,0.001788,-0.146098,0.008892,0.907643,10.877919,-0.391477,-0.367189,16.799094,-1.084182,-2.970628,-0.046541,8.379186,0,0.003462734,0
1786464124.653362,0.029162,-0.050833,-0.026949,-0.095459,0.009033,-0.996338,0.995449,0.008370,0.094829,-0.004301,-0.989634,0.001932,-0.143332,0.008757,0.924731,10.886632,-0.407018,-0.378513,16.478637,-1.068728,-2.920245,-0.046802,8.397940,0,0.003462472,0
1786464124.673365,0.031160,-0.051898,-0.030943,-0.096680,0.009521,-0.994873,0.995440,0.008541,0.094897,-0.004472,-0.990034,0.002102,-0.140546,0.008673,0.942614,10.894767,-0.424890,-0.393669,16.156058,-1.059665,-2.868573,-0.048043,8.415163,0,0.003462989,0
1786464124.693353,0.026233,-0.051898,-0.036003,-0.098145,0.010498,-0.993896,0.995432,0.008685,0.094966,-0.004665,-0.990427,0.002384,-0.137749,0.008637,0.957255,10.902941,-0.445696,-0.422915,15.832051,-1.058096,-2.816923,-0.050894,8.431573,0,0.003462744,0
1786464124.713720,0.018776,-0.052830,-0.039466,-0.099854,0.010498,-0.994141,0.995424,0.008791,0.095031,-0.004873,-0.990816,0.002630,-0.134914,0.008637,0.967235,10.910616,-0.468540,-0.448496,15.503903,-1.059884,-2.764817,-0.057434,8.446566,0,0.003478764,0
1786464124.733565,0.007457,-0.051232,-0.043194,-0.101807,0.010010,-0.992676,0.995415,0.008838,0.095104,-0.005093,-0.991196,0.002813,-0.132087,0.008650,0.970227,10.919252,-0.493565,-0.466759,15.176816,-1.062201,-2.713171,-0.064727,8.462830,0,0.003468522,0
1786464124.753434,-0.002263,-0.046039,-0.046390,-0.101074,0.008789,-0.987305,0.995404,0.008834,0.095203,-0.005325,-0.991557,0.002854,-0.129350,0.008688,0.967135,10.930909,-0.520438,-0.468740,14.860535,-1.065157,-2.659432,-0.071157,8.482546,0,0.003461839,0
1786464124.773422,-0.009054,-0.036984,-0.048254,-0.101318,0.009521,-0.982178,0.995390,0.008796,0.095348,-0.005562,-0.991897,0.003027,-0.126706,0.008741,0.960031,10.947761,-0.548295,-0.486649,14.554794,-1.071972,-2.609176,-0.072279,8.501114,0,0.003461876,0
1786464124.793509,-0.020106,-0.026199,-0.050384,-0.101318,0.010986,-0.976562,0.995370,0.008704,0.095546,-0.005804,-0.992215,0.003422,-0.124176,0.008806,0.946537,10.970791,-0.577258,-0.530701,14.262076,-1.083412,-2.560675,-0.076131,8.519259,0,0.003466134,0
1786464124.813435,-0.029827,-0.013815,-0.053847,-0.102051,0.014160,-0.973145,0.995345,0.008565,0.095806,-0.006057,-0.992510,0.004189,-0.121764,0.008891,0.927480,11.000899,-0.608049,-0.618781,13.982752,-1.102413,-2.515268,-0.082257,8.534270,0,0.003462507,0
1786464124.833440,-0.044474,-0.001964,-0.057841,-0.100586,0.011475,-0.975098,0.995314,0.008349,0.096126,-0.006323,-0.992777,0.004503,-0.119554,0.009004,0.899212,11.037860,-0.641134,-0.654389,13.727216,-1.117989,-2.469570,-0.102565,8.542964,0,0.003463115,0
1786464124.853354,-0.061652,0.009621,-0.058773,-0.098877,0.014404,-0.970703,0.995278,0.008050,0.096504,-0.006585,-0.993015,0.005257,-0.117519,0.009106,0.861362,11.081411,-0.674594,-0.741301,13.491408,-1.138483,-2.427518,-0.108699,8.556901,0,0.003459676,0
1786464124.873533,-0.059654,0.023603,-0.062236,-0.100098,0.012207,-0.985596,0.995235,0.007757,0.096952,-0.006864,-0.993230,0.005506,-0.115664,0.009253,0.823882,11.133018,-0.710034,-0.769889,13.277049,-1.157111,-2.391949,-0.125189,8.550647,0,0.003468419,0
1786464124.893518,-0.078163,0.033856,-0.064766,-0.098145,0.013916,-0.980957,0.995187,0.007372,0.097452,-0.007146,-0.993420,0.006080,-0.113976,0.009400,0.775695,11.190473,-0.746847,-0.836654,13.081611,-1.180202,-2.355947,-0.131492,8.562861,0,0.003466716,0
1786464124.913392,-0.076299,0.044775,-0.065032,-0.098389,0.016113,-0.988525,0.995134,0.006999,0.098006,-0.007430,-0.993591,0.006763,-0.112431,0.009550,0.728710,11.254137,-0.783714,-0.916196,12.902430,-1.204960,-2.325398,-0.139852,8.562329,0,0.003460696,0
1786464124.933450,-0.075633,0.055427,-0.067429,-0.096436,0.015869,-0.984375,0.995074,0.006627,0.098612,-0.007725,-0.993739,0.007255,-0.111064,0.009730,0.681708,11.323901,-0.821949,-0.973997,12.744005,-1.230739,-2.295277,-0.153372,8.572654,0,0.003463999,0
1786464124.953629,-0.070573,0.062618,-0.065564,-0.094971,0.016357,-0.985840,0.995010,0.006282,0.099254,-0.008012,-0.993872,0.007638,-0.109830,0.009901,0.637746,11.397748,-0.859082,-1.019034,12.601109,-1.254004,-2.268652,-0.161591,8.576878,0,0.003471638,0
1786464124.973399,-0.058855,0.069542,-0.064100,-0.094482,0.017090,-0.983154,0.994942,0.005996,0.099930,-0.008298,-0.993995,0.007905,-0.108676,0.010057,0.600602,11.475527,-0.895347,-1.050454,12.467597,-1.274151,-2.245172,-0.165926,8.584857,0,0.003459982,0
1786464124.993453,-0.048469,0.072338,-0.059839,-0.092285,0.017578,-0.988037,0.994871,0.005763,0.100620,-0.008567,-0.994105,0.008059,-0.107636,0.010193,0.569819,11.554869,-0.929139,-1.068500,12.347368,-1.290478,-2.221434,-0.168936,8.584974,0,0.003463293,0
1786464125.013481,-0.034088,0.075534,-0.056909,-0.091064,0.018311,-0.991455,0.994798,0.005604,0.101324,-0.008829,-0.994208,0.008119,-0.106673,0.010315,0.547560,11.636012,-0.961223,-1.075604,12.236182,-1.304114,-2.200685,-0.168637,8.586131,0,0.003464723,0
1786464125.033683,-0.014913,0.075667,-0.051450,-0.089844,0.017090,-0.999756,0.994725,0.005540,0.102029,-0.009074,-0.994305,0.007804,-0.105771,0.010408,0.536605,11.717220,-0.990182,-1.038627,12.132570,-1.309861,-2.181194,-0.167628,8.582242,0,0.003473163,0
1786464125.053572,-0.001864,0.074070,-0.044925,-0.087891,0.017334,-1.005371,0.994651,0.005544,0.102724,-0.009292,-0.994400,0.007473,-0.104902,0.010447,0.533831,11.797480,-1.015343,-0.999150,12.032863,-1.309167,-2.161643,-0.158681,8.580859,0,0.003466182,0
1786464125.073486,0.017311,0.069542,-0.038533,-0.085938,0.016357,-1.006104,0.994579,0.005645,0.103397,-0.009489,-0.994494,0.006935,-0.104038,0.010448,0.542589,11.875131,-1.036821,-0.935143,11.934007,-1.301574,-2.142504,-0.149539,8.584290,0,0.003462022,0
1786464125.093577,0.029695,0.064615,-0.032408,-0.083496,0.015625,-1.005371,0.994509,0.005810,0.104044,-0.009662,-0.994587,0.006352,-0.103185,0.010410,0.559059,11.949940,-1.054750,-0.865427,11.836555,-1.289016,-2.123001,-0.137138,8.589032,0,0.003466405,0
1786464125.113408,0.042877,0.057824,-0.027082,-0.082275,0.015381,-1.002197,0.994442,0.006043,0.104656,-0.009816,-0.994685,0.005806,-0.102279,0.010333,0.583686,12.020836,-1.069585,-0.799664,11.733010,-1.272555,-2.104339,-0.123229,8.596235,0,0.003458636,0
1786464125.133482,0.052465,0.050900,-0.022288,-0.079834,0.014404,-1.001953,0.994378,0.006325,0.105233,-0.009951,-0.994783,0.005223,-0.101368,0.010231,0.614301,12.087751,-1.081651,-0.729187,11.628853,-1.252715,-2.083632,-0.111148,8.600548,0,0.003463159,0
1786464125.153494,0.058191,0.042511,-0.016296,-0.079590,0.013428,-1.003906,0.994318,0.006637,0.105769,-0.010060,-0.994887,0.004652,-0.100383,0.010081,0.648845,12.149835,-1.090254,-0.659645,11.516256,-1.227567,-2.064578,-0.098982,8.602661,0,0.003463869,0
1786464125.173468,0.059789,0.034921,-0.012568,-0.079590,0.012939,-1.007812,0.994262,0.006959,0.106266,-0.010151,-0.994996,0.004188,-0.099334,0.009903,0.684763,12.207551,-1.096704,-0.602090,11.396170,-1.200546,-2.044422,-0.087305,8.603017,0,0.003462815,0
1786464125.193451,0.060055,0.026665,-0.010437,-0.080078,0.012695,-1.011230,0.994210,0.007284,0.106722,-0.010233,-0.995111,0.003843,-0.098206,0.009713,0.721129,12.260521,-1.101939,-0.558338,11.266740,-1.173518,-2.023336,-0.077655,8.604078,0,0.003462450,0
1786464125.213502,0.054063,0.017610,-0.009105,-0.080078,0.011719,-1.011963,0.994162,0.007578,0.107133,-0.010305,-0.995233,0.003547,-0.096999,0.009513,0.754179,12.308300,-1.106459,-0.520028,11.128248,-1.145971,-2.000000,-0.072213,8.608076,0,0.003465019,0
1786464125.233579,0.045541,0.009355,-0.008440,-0.079346,0.011719,-1.009521,0.994120,0.007831,0.107504,-0.010370,-0.995358,0.003427,-0.095732,0.009309,0.782507,12.351339,-1.110627,-0.502215,10.982656,-1.119910,-1.974483,-0.067279,8.615455,0,0.003468073,0
1786464125.253517,0.032757,-0.001032,-0.009105,-0.079590,0.011230,-1.006836,0.994083,0.008020,0.107823,-0.010432,-0.995490,0.003403,-0.094367,0.009107,0.803415,12.388435,-1.115266,-0.495449,10.825620,-1.095199,-1.948276,-0.067222,8.623295,0,0.003464428,0
1786464125.273444,0.018110,-0.010353,-0.010837,-0.080322,0.011230,-1.003906,0.994052,0.008135,0.108097,-0.010495,-0.995629,0.003509,-0.092905,0.008917,0.815733,12.420201,-1.120991,-0.503917,10.657344,-1.073240,-1.920775,-0.068958,8.631611,0,0.003461265,0
1786464125.293467,-0.001730,-0.020739,-0.012967,-0.080811,0.010498,-1.003906,0.994026,0.008148,0.108321,-0.010558,-0.995774,0.003635,-0.091349,0.008739,0.816306,12.446042,-1.128075,-0.514883,10.478235,-1.052829,-1.890836,-0.075106,8.637249,0,0.003462939,0
1786464125.313518,-0.017843,-0.028995,-0.015364,-0.082031,0.010498,-1.004639,0.994006,0.008080,0.108505,-0.010625,-0.995924,0.003833,-0.089706,0.008578,0.807294,12.467173,-1.136641,-0.534252,10.289046,-1.035067,-1.860171,-0.080327,8.642311,0,0.003465382,0
1786464125.333599,-0.032091,-0.035653,-0.017361,-0.083496,0.010498,-1.005859,0.993990,0.007939,0.108656,-0.010694,-0.996078,0.004063,-0.087988,0.008432,0.789790,12.484508,-1.146446,-0.557392,10.091251,-1.019228,-1.828333,-0.086641,8.647010,0,0.003468512,0
1786464125.353467,-0.045406,-0.041112,-0.018826,-0.084961,0.012207,-1.004883,0.993977,0.007731,0.108781,-0.010764,-0.996232,0.004519,-0.086208,0.008295,0.764598,12.498710,-1.157118,-0.606901,9.886160,-1.006583,-1.795355,-0.091609,8.653980,0,0.003461813,0
1786464125.373548,-0.053795,-0.043509,-0.020957,-0.084961,0.013428,-1.000732,0.993966,0.007482,0.108894,-0.010839,-0.996384,0.005063,-0.084412,0.008181,0.734409,12.511541,-1.169031,-0.666700,9.679144,-0.997325,-1.760132,-0.100718,8.664102,0,0.003465809,0
1786464125.393469,-0.058323,-0.044441,-0.023353,-0.086426,0.014648,-0.994873,0.993955,0.007209,0.109003,-0.010923,-0.996535,0.005644,-0.082588,0.008092,0.701386,12.523841,-1.182329,-0.731063,9.468957,-0.991017,-1.726489,-0.110575,8.675775,0,0.003462042,0
1786464125.413572,-0.057391,-0.041911,-0.025750,-0.087158,0.015381,-0.988770,0.993943,0.006940,0.109125,-0.011020,-0.996681,0.006175,-0.080777,0.008034,0.668617,12.537595,-1.196997,-0.789911,9.260187,-0.987679,-1.692160,-0.120727,8.687588,0,0.003466948,0
1786464125.433425,-0.052464,-0.038582,-0.027748,-0.087646,0.016113,-0.986084,0.993928,0.006695,0.109262,-0.011129,-0.996820,0.006633,-0.079006,0.008003,0.638448,12.553258,-1.212794,-0.840684,9.056218,-0.986564,-1.658150,-0.128864,8.695818,0,0.003459990,0
1786464125.453485,-0.045007,-0.032856,-0.030411,-0.088623,0.018311,-0.985596,0.993910,0.006487,0.109428,-0.011255,-0.996951,0.007221,-0.077279,0.008010,0.612436,12.572189,-1.230058,-0.906722,8.857089,-0.990887,-1.625736,-0.133914,8.701587,0,0.003463546,0
1786464125.473567,-0.032091,-0.024867,-0.033340,-0.089355,0.018311,-0.985596,0.993887,0.006342,0.109633,-0.011401,-0.997075,0.007578,-0.075631,0.008059,0.593409,12.595711,-1.248994,-0.946512,8.667322,-0.997881,-1.594393,-0.142549,8.706574,0,0.003467176,0
1786464125.494419,-0.017976,-0.015413,-0.035471,-0.090576,0.017822,-0.986084,0.993857,0.006266,0.109884,-0.011566,-0.997191,0.007694,-0.074056,0.008152,0.582095,12.624664,-1.269139,-0.958963,8.486201,-1.007860,-1.565273,-0.147180,8.710804,0,0.003502822,0
1786464125.513619,-0.003328,-0.005026,-0.035604,-0.091797,0.017090,-0.984863,0.993822,0.006262,0.110186,-0.011740,-0.997299,0.007585,-0.072589,0.008230,0.579034,12.659576,-1.289326,-0.945322,8.317648,-1.014344,-1.538074,-0.146909,8.716470,0,0.003459104,0
1786464125.533545,0.010920,0.004827,-0.034406,-0.091064,0.016113,-0.982666,0.993781,0.006329,0.110536,-0.011915,-0.997398,0.007288,-0.071244,0.008321,0.584163,12.700138,-1.308776,-0.910189,8.163323,-1.020921,-1.510687,-0.142908,8.722824,0,0.003457201,0
1786464125.553489,0.021972,0.014947,-0.033873,-0.091797,0.016357,-0.979980,0.993733,0.006452,0.110936,-0.012093,-0.997487,0.007026,-0.069991,0.008414,0.595713,12.746494,-1.327846,-0.879190,8.019567,-1.028231,-1.487192,-0.134673,8.729245,0,0.003456474,0
1786464125.573595,0.031160,0.024535,-0.032808,-0.091309,0.014893,-0.979248,0.993680,0.006621,0.111383,-0.012270,-0.997569,0.006569,-0.068858,0.008507,0.612488,12.798357,-1.346267,-0.825879,7.889911,-1.034090,-1.464156,-0.129187,8.733363,0,0.003462880,0
1786464125.593441,0.039016,0.034921,-0.031476,-0.090088,0.013428,-0.981445,0.993620,0.006828,0.111881,-0.012446,-0.997639,0.005976,-0.067871,0.008589,0.633770,12.856182,-1.363870,-0.757018,7.777100,-1.037948,-1.442759,-0.120321,8.734182,0,0.003456622,0
1786464125.613497,0.041013,0.043709,-0.030677,-0.089844,0.012939,-0.985107,0.993555,0.007046,0.112423,-0.012618,-0.997700,0.005452,-0.066999,0.008668,0.656260,12.919047,-1.380947,-0.696129,7.677445,-1.042249,-1.425002,-0.108788,8.733087,0,0.003460850,0
1786464125.633555,0.039948,0.050501,-0.028547,-0.088379,0.011230,-0.989014,0.993486,0.007259,0.112998,-0.012780,-0.997753,0.004851,-0.066244,0.008727,0.678241,12.985810,-1.396755,-0.626421,7.591308,-1.043856,-1.407829,-0.100396,8.731398,0,0.003464133,0
1786464125.653458,0.035154,0.054762,-0.026416,-0.087158,0.009277,-0.992432,0.993415,0.007447,0.113595,-0.012928,-0.997801,0.004206,-0.065569,0.008762,0.697554,13.055021,-1.411315,-0.551521,7.514434,-1.042459,-1.392663,-0.091436,8.729913,0,0.003459962,0
1786464125.673516,0.025434,0.059156,-0.024285,-0.085938,0.008301,-0.993652,0.993341,0.007589,0.114214,-0.013060,-0.997841,0.003701,-0.064977,0.008774,0.711506,13.126744,-1.424598,-0.492645,7.446927,-1.039584,-1.379240,-0.081389,8.730333,0,0.003463486,0
1786464125.693699,0.014781,0.060221,-0.022288,-0.085693,0.008789,-0.995361,0.993267,0.007679,0.114839,-0.013175,-0.997879,0.003497,-0.064411,0.008761,0.719712,13.199059,-1.436671,-0.468477,7.382163,-1.036275,-1.367817,-0.072761,8.730096,0,0.003471448,0
1786464125.713644,0.001066,0.061020,-0.020557,-0.084961,0.008545,-0.992920,0.993192,0.007703,0.115469,-0.013275,-0.997915,0.003452,-0.063863,0.008723,0.720290,13.271820,-1.447716,-0.462398,7.319394,-1.031188,-1.356103,-0.071330,8.733908,0,0.003467259,0
1786464125.733470,-0.009054,0.060754,-0.018560,-0.083008,0.009033,-0.992920,0.993118,0.007678,0.116098,-0.013358,-0.997947,0.003579,-0.063353,0.008662,0.715415,13.344410,-1.457571,-0.475982,7.260716,-1.024847,-1.343405,-0.071551,8.735253,0,0.003459084,0
1786464125.753645,-0.018642,0.061819,-0.017494,-0.081543,0.008789,-0.994873,0.993043,0.007606,0.116733,-0.013431,-0.997976,0.003730,-0.062900,0.008593,0.705160,13.417605,-1.466801,-0.492438,7.208549,-1.017681,-1.332367,-0.075841,8.734455,0,0.003467789,0
1786464125.773522,-0.028495,0.059688,-0.015897,-0.080566,0.008545,-0.998535,0.992970,0.007486,0.117358,-0.013490,-0.998005,0.003894,-0.062445,0.008504,0.689421,13.489570,-1.475123,-0.510123,7.156201,-1.008355,-1.322025,-0.080545,8.731928,0,0.003461610,0
1786464125.793501,-0.035020,0.055960,-0.014432,-0.079590,0.009521,-1.002930,0.992898,0.007335,0.117965,-0.013537,-0.998033,0.004190,-0.061982,0.008403,0.670217,13.559381,-1.482598,-0.543107,7.102805,-0.998499,-1.311622,-0.083773,8.728695,0,0.003461327,0
1786464125.813498,-0.041545,0.051433,-0.013100,-0.079102,0.010498,-1.005615,0.992830,0.007152,0.118549,-0.013575,-0.998063,0.004581,-0.061489,0.008289,0.647516,13.626582,-1.489314,-0.586769,7.045893,-0.987835,-1.301334,-0.089605,8.727185,0,0.003461873,0
1786464125.833551,-0.043675,0.044375,-0.011902,-0.078369,0.013184,-1.007812,0.992765,0.006961,0.119099,-0.013604,-0.998094,0.005213,-0.060942,0.008168,0.624006,13.689710,-1.495317,-0.658141,6.982493,-0.977885,-1.289774,-0.094812,8.726288,0,0.003464721,0
1786464125.853494,-0.043542,0.036918,-0.012967,-0.077637,0.013916,-1.007324,0.992704,0.006770,0.119611,-0.013640,-0.998129,0.005752,-0.060334,0.008061,0.600428,13.748568,-1.501999,-0.718831,6.912234,-0.968895,-1.276925,-0.106260,8.728142,0,0.003462133,0
1786464125.873474,-0.040213,0.028929,-0.014964,-0.077637,0.016357,-1.007080,0.992648,0.006596,0.120083,-0.013687,-0.998167,0.006416,-0.059647,0.007981,0.578679,13.802840,-1.509862,-0.794046,6.832851,-0.963566,-1.263562,-0.113684,8.729903,0,0.003461740,0
1786464125.893533,-0.030493,0.019208,-0.018027,-0.076904,0.016357,-1.005859,0.992596,0.006467,0.120507,-0.013755,-0.998210,0.006813,-0.058882,0.007940,0.561978,13.851563,-1.519607,-0.838694,6.744669,-0.960852,-1.247547,-0.124848,8.732846,0,0.003464852,0
1786464125.913510,-0.021305,0.010287,-0.021489,-0.076660,0.018311,-1.007080,0.992549,0.006382,0.120885,-0.013846,-0.998256,0.007270,-0.058036,0.007940,0.550213,13.895177,-1.531403,-0.890458,6.647168,-0.963124,-1.230582,-0.128871,8.733563,0,0.003463672,0
1786464125.933470,-0.009587,0.002297,-0.026150,-0.077881,0.020264,-1.006836,0.992507,0.006354,0.121223,-0.013967,-0.998307,0.007761,-0.057095,0.007992,0.544666,13.934218,-1.545949,-0.946282,6.538583,-0.971426,-1.213617,-0.133618,8.735894,0,0.003462078,0
1786464125.953617,0.003596,-0.004893,-0.033340,-0.078125,0.020508,-1.006836,0.992467,0.006386,0.121525,-0.014132,-0.998360,0.008055,-0.056087,0.008125,0.545638,13.969177,-1.564775,-0.979974,6.422495,-0.987530,-1.193836,-0.140490,8.738179,0,0.003468857,0
1786464125.973505,0.017844,-0.009820,-0.040264,-0.078613,0.020020,-1.006348,0.992430,0.006484,0.121802,-0.014341,-0.998417,0.008114,-0.055035,0.008326,0.553707,14.001358,-1.587731,-0.986860,6.301549,-1.009955,-1.173451,-0.144079,8.741127,0,0.003462924,0
1786464125.993578,0.029695,-0.014347,-0.044259,-0.080811,0.018555,-1.004150,0.992394,0.006637,0.122055,-0.014576,-0.998478,0.007898,-0.053911,0.008572,0.567801,14.030985,-1.613115,-0.962197,6.172543,-1.035592,-1.154029,-0.144412,8.745894,0,0.003466324,0
1786464126.013476,0.034888,-0.019674,-0.045857,-0.080322,0.014893,-1.001709,0.992361,0.006810,0.122282,-0.014824,-0.998542,0.007255,-0.052760,0.008828,0.584221,14.057609,-1.639573,-0.888517,6.040904,-1.059919,-1.130486,-0.142895,8.750999,0,0.003461405,0
1786464126.033619,0.036220,-0.024467,-0.044925,-0.081055,0.012695,-0.999512,0.992331,0.006989,0.122485,-0.015068,-0.998608,0.006510,-0.051556,0.009076,0.601287,14.081504,-1.665571,-0.802825,5.903352,-1.082844,-1.107795,-0.132159,8.755896,0,0.003468189,0
1786464126.053540,0.033423,-0.028729,-0.043194,-0.081299,0.011230,-0.999268,0.992304,0.007153,0.122667,-0.015302,-0.998673,0.005812,-0.050322,0.009297,0.616838,14.102965,-1.690614,-0.722417,5.762334,-1.103134,-1.083839,-0.119603,8.758805,0,0.003463814,0
1786464126.073551,0.028496,-0.032457,-0.040398,-0.082275,0.010498,-1.000000,0.992279,0.007293,0.122831,-0.015519,-0.998738,0.005249,-0.049046,0.009487,0.629885,14.122281,-1.714052,-0.657179,5.616502,-1.120736,-1.060060,-0.107542,8.760671,0,0.003464321,0
1786464126.093482,0.020241,-0.035919,-0.037734,-0.083740,0.009277,-1.000488,0.992257,0.007393,0.122979,-0.015719,-0.998803,0.004740,-0.047730,0.009643,0.638433,14.139608,-1.735980,-0.597947,5.465901,-1.134794,-1.036035,-0.099285,8.762710,0,0.003461330,0
1786464126.113468,0.010520,-0.036851,-0.035471,-0.084473,0.009033,-0.999756,0.992236,0.007445,0.123122,-0.015901,-0.998865,0.004402,-0.046403,0.009771,0.641699,14.156390,-1.756588,-0.558242,5.314048,-1.146817,-1.010938,-0.091380,8.765914,0,0.003461425,0
1786464126.133610,-0.000798,-0.037916,-0.032808,-0.084961,0.008301,-0.998291,0.992216,0.007442,0.123261,-0.016064,-0.998927,0.004135,-0.045067,0.009870,0.638758,14.172550,-1.775656,-0.526498,5.161096,-1.155947,-0.985310,-0.087630,8.769765,0,0.003468118,0
1786464126.153614,-0.013315,-0.037517,-0.030411,-0.085449,0.009766,-0.992920,0.992197,0.007380,0.123403,-0.016207,-0.998985,0.004214,-0.043736,0.009938,0.629138,14.188910,-1.793270,-0.534299,5.008218,-1.163334,-0.959903,-0.083285,8.777421,0,0.003467313,0
1786464126.173966,-0.022903,-0.036452,-0.028280,-0.085693,0.009033,-0.989746,0.992177,0.007271,0.123551,-0.016333,-0.999041,0.004243,-0.042414,0.009987,0.614210,14.205871,-1.809645,-0.536216,4.856537,-1.168237,-0.934214,-0.087369,8.782790,0,0.003481568,0
1786464126.193666,-0.029960,-0.031525,-0.025617,-0.085449,0.010254,-0.986816,0.992155,0.007129,0.123724,-0.016441,-0.999092,0.004470,-0.041165,0.010002,0.595740,14.225626,-1.824383,-0.560808,4.713052,-1.170193,-0.909411,-0.087666,8.787787,0,0.003464439,0
1786464126.213881,-0.034354,-0.026864,-0.025218,-0.086670,0.010986,-0.987061,0.992130,0.006967,0.123920,-0.016544,-0.999140,0.004769,-0.039946,0.010018,0.574850,14.248040,-1.838843,-0.593807,4.572938,-1.172649,-0.886987,-0.092156,8.789434,0,0.003473550,0
1786464126.233642,-0.035952,-0.019940,-0.025218,-0.086914,0.011475,-0.987061,0.992100,0.006798,0.124151,-0.016646,-0.999183,0.005065,-0.038811,0.010032,0.553067,14.274414,-1.853254,-0.626431,4.442373,-1.174758,-0.864863,-0.097399,8.791174,0,0.003461009,0
1786464126.253726,-0.033289,-0.012084,-0.025351,-0.087158,0.012451,-0.986572,0.992066,0.006643,0.124420,-0.016750,-0.999222,0.005405,-0.037755,0.010054,0.532870,14.305279,-1.867677,-0.664280,4.320898,-1.178044,-0.844363,-0.101514,8.793254,0,0.003465346,0
1786464126.273577,-0.029294,-0.003961,-0.025617,-0.085693,0.012939,-0.986572,0.992026,0.006508,0.124729,-0.016857,-0.999255,0.005697,-0.036815,0.010083,0.514960,14.340794,-1.882203,-0.696734,4.212762,-1.181844,-0.823793,-0.106566,8.794675,0,0.003458684,0
1786464126.294178,-0.023435,0.004295,-0.025617,-0.086426,0.013184,-0.985107,0.991981,0.006403,0.125079,-0.016967,-0.999285,0.005915,-0.035951,0.010123,0.500397,14.381034,-1.896687,-0.720929,4.113355,-1.186685,-0.807691,-0.110860,8.797379,0,0.003485698,0
1786464126.313750,-0.016378,0.011752,-0.025218,-0.086182,0.013916,-0.985352,0.991931,0.006335,0.125465,-0.017080,-0.999311,0.006115,-0.035171,0.010152,0.489992,14.425538,-1.910882,-0.743032,4.023736,-1.190220,-0.791832,-0.112630,8.798291,0,0.003462079,0
1786464126.333761,-0.008255,0.019475,-0.025617,-0.085205,0.013916,-0.985840,0.991875,0.006307,0.125889,-0.017199,-0.999334,0.006205,-0.034496,0.010197,0.484160,14.474468,-1.925281,-0.752639,3.946148,-1.195129,-0.777038,-0.114913,8.798809,0,0.003463069,0
1786464126.353818,-0.001198,0.023869,-0.024818,-0.084473,0.013916,-0.988770,0.991817,0.006315,0.126333,-0.017318,-0.999354,0.006211,-0.033886,0.010239,0.482463,14.525915,-1.939190,-0.752773,3.876257,-1.199470,-0.763886,-0.115204,8.796793,0,0.003465744,0
1786464126.374294,0.004528,0.028130,-0.025218,-0.084961,0.014648,-0.992188,0.991755,0.006352,0.126799,-0.017443,-0.999372,0.006259,-0.033325,0.010292,0.484043,14.579799,-1.953298,-0.757738,3.811846,-1.205303,-0.753320,-0.113411,8.794185,0,0.003485660,0
1786464126.394311,0.008123,0.029728,-0.024552,-0.084961,0.012939,-0.997314,0.991692,0.006406,0.127272,-0.017567,-0.999391,0.006035,-0.032790,0.010336,0.487560,14.634611,-1.967057,-0.731554,3.750725,-1.209001,-0.742491,-0.115303,8.789812,0,0.003481054,0
1786464126.414183,0.008789,0.030261,-0.022421,-0.084961,0.012207,-0.999512,0.991628,0.006463,0.127747,-0.017681,-0.999409,0.005772,-0.032268,0.010358,0.491677,14.689724,-1.979573,-0.700787,3.691160,-1.210146,-0.732137,-0.111425,8.788366,0,0.003471440,0
1786464126.433805,0.009588,0.029728,-0.019758,-0.083984,0.011719,-0.999023,0.991565,0.006526,0.128220,-0.017782,-0.999427,0.005517,-0.031758,0.010354,0.496592,14.744524,-1.990526,-0.670865,3.632965,-1.208413,-0.720856,-0.106497,8.789598,0,0.003453499,0
1786464126.453799,0.009188,0.029195,-0.016296,-0.082764,0.011719,-0.998291,0.991502,0.006589,0.128690,-0.017866,-0.999443,0.005338,-0.031269,0.010323,0.501803,14.799002,-1.999426,-0.649638,3.577121,-1.203823,-0.709747,-0.101389,8.791021,0,0.003455868,0
1786464126.473669,0.008123,0.026665,-0.014698,-0.081543,0.011719,-0.996826,0.991441,0.006648,0.129148,-0.017941,-0.999460,0.005224,-0.030773,0.010278,0.506649,14.852025,-2.007387,-0.635776,3.520479,-1.197904,-0.698513,-0.097949,8.793156,0,0.003452360,0
1786464126.493734,0.004927,0.022271,-0.011369,-0.080566,0.010986,-0.999268,0.991383,0.006691,0.129584,-0.017998,-0.999477,0.005073,-0.030258,0.010204,0.510083,14.902519,-2.013416,-0.617542,3.461653,-1.188523,-0.687134,-0.096861,8.791373,0,0.003457989,0
1786464126.513841,0.001066,0.017344,-0.008573,-0.080322,0.011719,-1.002441,0.991328,0.006718,0.129996,-0.018039,-0.999495,0.005088,-0.029704,0.010104,0.511808,14.950172,-2.017790,-0.618197,3.398214,-1.176765,-0.675950,-0.093717,8.788888,0,0.003464067,0
1786464126.533801,-0.002263,0.012284,-0.006575,-0.079834,0.011475,-1.004639,0.991276,0.006729,0.130383,-0.018068,-0.999513,0.005093,-0.029114,0.009988,0.511894,14.994918,-2.021012,-0.617698,3.330672,-1.162976,-0.663659,-0.094694,8.787390,0,0.003462352,0
1786464126.553794,-0.004793,0.006558,-0.004844,-0.080078,0.011230,-1.006836,0.991229,0.006728,0.130741,-0.018086,-0.999533,0.005084,-0.028473,0.009857,0.510748,15.036376,-2.023247,-0.615500,3.257291,-1.147472,-0.651280,-0.095334,8.785933,0,0.003462505,0
1786464126.573798,-0.006391,0.000433,-0.003646,-0.079834,0.012451,-1.006104,0.991185,0.006720,0.131070,-0.018098,-0.999553,0.005250,-0.027779,0.009717,0.508997,15.074311,-2.024767,-0.633269,3.177586,-1.131552,-0.637310,-0.094052,8.787458,0,0.003463066,0
1786464126.593756,-0.007589,-0.004361,-0.002714,-0.079834,0.012451,-1.004395,0.991145,0.006707,0.131374,-0.018105,-0.999574,0.005384,-0.027043,0.009573,0.506687,15.109496,-2.025760,-0.647341,3.093178,-1.114841,-0.622746,-0.097328,8.789950,0,0.003461520,0
1786464126.613755,-0.007723,-0.010086,-0.001782,-0.078613,0.012939,-1.000977,0.991108,0.006693,0.131650,-0.018107,-0.999595,0.005554,-0.026270,0.009424,0.504495,15.141392,-2.026214,-0.665522,3.004526,-1.097758,-0.605952,-0.099285,8.794192,0,0.003462137,0
1786464126.633768,-0.008255,-0.014481,-0.000717,-0.078857,0.012939,-0.999756,0.991075,0.006677,0.131905,-0.018103,-0.999617,0.005686,-0.025458,0.009269,0.502147,15.170766,-2.026059,-0.679263,2.911391,-1.079741,-0.590150,-0.102508,8.796226,0,0.003463140,0
1786464126.653794,-0.007589,-0.019008,0.000216,-0.079346,0.012939,-0.999756,0.991044,0.006664,0.132137,-0.018096,-0.999639,0.005780,-0.024603,0.009108,0.500306,15.197541,-2.025376,-0.688631,2.813425,-1.060979,-0.573784,-0.104735,8.797065,0,0.003464494,0
1786464126.673707,-0.006924,-0.023535,0.001015,-0.080078,0.013184,-1.001709,0.991016,0.006655,0.132346,-0.018085,-0.999662,0.005875,-0.023707,0.008944,0.498980,15.221717,-2.024237,-0.698063,2.710683,-1.041761,-0.556851,-0.105962,8.795969,0,0.003460719,0
1786464126.693666,-0.003728,-0.027264,0.001813,-0.080811,0.013916,-1.003906,0.990991,0.006662,0.132537,-0.018072,-0.999684,0.006017,-0.022774,0.008777,0.499678,15.243748,-2.022621,-0.712965,2.603755,-1.022281,-0.539223,-0.106207,8.794634,0,0.003459795,0
1786464126.713749,-0.003462,-0.031259,0.002080,-0.081543,0.013916,-1.003662,0.990968,0.006671,0.132707,-0.018058,-0.999706,0.006123,-0.021801,0.008611,0.500559,15.263488,-2.020869,-0.723683,2.492184,-1.002782,-0.520785,-0.108718,8.795723,0,0.003464385,0
1786464126.733707,-0.000932,-0.034854,0.003012,-0.082031,0.013184,-1.001709,0.990948,0.006691,0.132860,-0.018042,-0.999729,0.006098,-0.020797,0.008441,0.502949,15.281167,-2.018603,-0.719304,2.377343,-0.982428,-0.501460,-0.110768,8.798523,0,0.003462528,0
1786464126.753661,0.001199,-0.035386,0.004077,-0.083008,0.013428,-0.997803,0.990928,0.006723,0.133010,-0.018021,-0.999752,0.006108,-0.019782,0.008264,0.506755,15.298533,-2.015699,-0.719058,2.261060,-0.961415,-0.482679,-0.109341,8.803268,0,0.003460955,0
1786464126.773688,0.003862,-0.035520,0.005675,-0.083008,0.012451,-0.992676,0.990908,0.006769,0.133159,-0.017995,-0.999773,0.005985,-0.018770,0.008077,0.512239,15.315819,-2.011872,-0.703607,2.145336,-0.938871,-0.462731,-0.109726,8.809191,0,0.003462883,0
1786464126.793645,0.006259,-0.034721,0.008605,-0.084473,0.012207,-0.990723,0.990888,0.006828,0.133311,-0.017956,-0.999794,0.005856,-0.017756,0.007864,0.519534,15.333546,-2.006308,-0.687393,2.029431,-0.913514,-0.444587,-0.106829,8.811915,0,0.003461348,0
1786464126.816163,0.008922,-0.031791,0.010602,-0.084229,0.012695,-0.989990,0.990866,0.006903,0.133478,-0.017908,-0.999814,0.005808,-0.016733,0.007623,0.528746,15.352937,-1.999524,-0.680385,1.912393,-0.885059,-0.424335,-0.102793,8.813395,0,0.003570057,0
1786464126.836100,0.009721,-0.029394,0.013531,-0.086182,0.012207,-0.991211,0.990842,0.006983,0.133656,-0.017846,-0.999832,0.005711,-0.015764,0.007371,0.538828,15.373685,-1.991001,-0.667945,1.801568,-0.855336,-0.407558,-0.102154,8.812811,0,0.003540970,0
1786464126.853666,0.011452,-0.026065,0.015529,-0.086670,0.011963,-0.992676,0.990817,0.007073,0.133851,-0.017776,-0.999848,0.005607,-0.014874,0.007126,0.550210,15.396328,-1.981278,-0.654916,1.699879,-0.826359,-0.390371,-0.100205,8.811924,0,0.003418039,0
1786464126.873670,0.012517,-0.021405,0.016860,-0.086670,0.012695,-0.992676,0.990788,0.007171,0.134068,-0.017700,-0.999863,0.005612,-0.014006,0.006853,0.562523,15.421625,-1.970711,-0.654257,1.600557,-0.794578,-0.373313,-0.096760,8.812461,0,0.003429504,0
1786464126.896086,0.012651,-0.017277,0.018725,-0.086670,0.012451,-0.990967,0.990757,0.007271,0.134306,-0.017614,-0.999876,0.005577,-0.013156,0.006545,0.575212,15.449275,-1.959014,-0.649139,1.503406,-0.758574,-0.356750,-0.096569,8.814639,0,0.003541328,0
1786464126.913742,0.012118,-0.012084,0.019923,-0.087158,0.012451,-0.989258,0.990722,0.007370,0.134569,-0.017522,-0.999888,0.005579,-0.012404,0.006276,0.587816,15.479889,-1.946568,-0.648344,1.417324,-0.727304,-0.342337,-0.096424,8.816749,0,0.003422084,0
1786464126.933676,0.010254,-0.007556,0.021388,-0.087402,0.011719,-0.987305,0.990684,0.007460,0.134856,-0.017421,-0.999899,0.005491,-0.011686,0.005976,0.599536,15.513088,-1.933239,-0.637366,1.335299,-0.692263,-0.328478,-0.097124,8.819066,0,0.003429609,0
1786464126.953679,0.008123,-0.003029,0.023119,-0.088623,0.011719,-0.987305,0.990643,0.007541,0.135164,-0.017311,-0.999909,0.005443,-0.011004,0.005662,0.610334,15.548866,-1.918847,-0.630918,1.257396,-0.655767,-0.316537,-0.095671,8.819405,0,0.003438163,0
1786464126.973685,0.004661,0.000566,0.025382,-0.087158,0.011230,-0.989014,0.990600,0.007607,0.135491,-0.017186,-0.999917,0.005369,-0.010387,0.005332,0.619497,15.586692,-1.903091,-0.621695,1.186949,-0.617451,-0.302420,-0.095742,8.818005,0,0.003444796,0
1786464126.993668,0.002264,0.004694,0.027912,-0.088135,0.011963,-0.991699,0.990555,0.007664,0.135838,-0.017047,-0.999925,0.005426,-0.009807,0.004982,0.627795,15.626859,-1.885775,-0.627462,1.120732,-0.577054,-0.292109,-0.093902,8.815587,0,0.003448804,0
1786464127.013601,-0.001331,0.008423,0.028711,-0.087891,0.012939,-0.994873,0.990507,0.007705,0.136204,-0.016902,-0.999930,0.005619,-0.009277,0.004631,0.634301,15.669147,-1.867923,-0.648880,1.060057,-0.536664,-0.281233,-0.094617,8.812637,0,0.003449744,0
1786464127.033632,-0.003728,0.010953,0.029910,-0.088379,0.012695,-0.995361,0.990457,0.007734,0.136582,-0.016749,-0.999936,0.005747,-0.008773,0.004271,0.639623,15.712876,-1.849341,-0.662924,1.002538,-0.495280,-0.271813,-0.098994,8.812312,0,0.003454575,0
1786464127.053761,-0.005459,0.011219,0.028711,-0.087402,0.014404,-0.994873,0.990407,0.007757,0.136962,-0.016600,-0.999939,0.006080,-0.008287,0.003928,0.643975,15.756752,-1.831411,-0.700508,0.946878,-0.455948,-0.261069,-0.100041,8.812959,0,0.003462426,0
1786464127.073851,-0.006125,0.011885,0.028046,-0.087158,0.015137,-0.995117,0.990356,0.007776,0.137345,-0.016455,-0.999942,0.006424,-0.007815,0.003597,0.647939,15.801006,-1.813842,-0.739467,0.892879,-0.418024,-0.251431,-0.105878,8.812803,0,0.003466688,0
1786464127.094494,-0.005326,0.012151,0.025782,-0.086426,0.015381,-0.995361,0.990305,0.007797,0.137730,-0.016321,-0.999945,0.006704,-0.007362,0.003287,0.652042,15.845425,-1.797604,-0.771110,0.841044,-0.382383,-0.241604,-0.112188,8.812615,0,0.003493507,0
1786464127.113848,-0.004660,0.010553,0.024317,-0.086914,0.015625,-0.996094,0.990254,0.007821,0.138106,-0.016194,-0.999948,0.006931,-0.006888,0.003012,0.656321,15.888935,-1.782237,-0.796690,0.786864,-0.350650,-0.232786,-0.117187,8.811950,0,0.003458671,0
1786464127.133784,-0.004260,0.008955,0.023385,-0.085938,0.016357,-0.999512,0.990204,0.007847,0.138475,-0.016073,-0.999950,0.007185,-0.006421,0.002743,0.660772,15.931529,-1.767407,-0.825393,0.733492,-0.319674,-0.222303,-0.120792,8.808606,0,0.003457270,0
1786464127.153697,-0.002663,0.006692,0.022852,-0.086426,0.015869,-1.000488,0.990156,0.007880,0.138832,-0.015955,-0.999953,0.007293,-0.005934,0.002484,0.666002,15.972833,-1.752918,-0.837466,0.677857,-0.289603,-0.213227,-0.125893,8.807682,0,0.003455269,0
1786464127.173898,-0.000932,0.003229,0.022586,-0.086914,0.016113,-1.002197,0.990110,0.007921,0.139172,-0.015840,-0.999956,0.007389,-0.005413,0.002227,0.672209,16.012151,-1.738601,-0.848086,0.618411,-0.259804,-0.203537,-0.127390,8.806064,0,0.003465985,0
1786464127.193796,0.001998,0.000966,0.022586,-0.086670,0.016357,-1.002441,0.990065,0.007977,0.139500,-0.015728,-0.999958,0.007470,-0.004879,0.001977,0.680134,16.050168,-1.724284,-0.857088,0.557380,-0.230776,-0.192666,-0.128398,8.805904,0,0.003461196,0
1786464127.214111,0.003729,-0.002630,0.022453,-0.085693,0.016113,-1.000488,0.990022,0.008041,0.139810,-0.015617,-0.999961,0.007491,-0.004324,0.001728,0.689026,16.086127,-1.710069,-0.859310,0.493967,-0.201697,-0.180529,-0.129833,8.807944,0,0.003475319,0
1786464127.233941,0.005726,-0.006225,0.022586,-0.085693,0.015869,-0.999268,0.989982,0.008114,0.140103,-0.015507,-0.999964,0.007467,-0.003740,0.001485,0.699073,16.120023,-1.695799,-0.856263,0.427289,-0.173394,-0.168974,-0.130087,8.809257,0,0.003465326,0
1786464127.254872,0.008390,-0.009554,0.022852,-0.085693,0.015625,-0.997559,0.989944,0.008201,0.140379,-0.015398,-0.999967,0.007401,-0.003121,0.001231,0.710683,16.152008,-1.681394,-0.848564,0.356579,-0.143656,-0.156794,-0.129193,8.811061,0,0.003504831,0
1786464127.273505,0.010920,-0.011817,0.023651,-0.085693,0.015381,-0.998047,0.989908,0.008300,0.140643,-0.015287,-0.999970,0.007314,-0.002504,0.000998,0.723871,16.182688,-1.666528,-0.838419,0.286105,-0.116431,-0.144460,-0.127843,8.810660,0,0.003436447,0
1786464127.293512,0.013583,-0.013948,0.023651,-0.085449,0.015381,-0.998535,0.989872,0.008413,0.140897,-0.015177,-0.999972,0.007229,-0.001867,0.000752,0.738612,16.212143,-1.651669,-0.828514,0.213366,-0.087674,-0.131562,-0.125424,8.810257,0,0.003443534,0
1786464127.313498,0.015181,-0.015812,0.023785,-0.085938,0.014648,-1.000244,0.989838,0.008533,0.141141,-0.015069,-0.999974,0.007060,-0.001217,0.000507,0.754234,16.240529,-1.636759,-0.809066,0.139003,-0.059100,-0.119216,-0.124144,8.808618,0,0.003447967,0
1786464127.333487,0.016246,-0.018475,0.023785,-0.085205,0.014893,-0.999512,0.989806,0.008658,0.141372,-0.014961,-0.999976,0.006966,-0.000553,0.000265,0.770528,16.267382,-1.621853,-0.798297,0.063143,-0.030844,-0.105202,-0.120351,8.809430,0,0.003451482,0
1786464127.353570,0.016379,-0.019674,0.023385,-0.086670,0.015381,-0.999023,0.989774,0.008784,0.141597,-0.014856,-0.999976,0.006962,0.000135,0.000029,0.786904,16.293540,-1.607176,-0.797741,-0.015456,-0.003203,-0.093417,-0.117979,8.809963,0,0.003458114,0
1786464127.373556,0.015447,-0.021671,0.022986,-0.085938,0.014648,-0.997314,0.989744,0.008905,0.141812,-0.014752,-0.999976,0.006876,0.000825,-0.000200,0.802636,16.318558,-1.592766,-0.787975,-0.094430,0.023578,-0.078835,-0.118817,8.811678,0,0.003458991,0
1786464127.393485,0.014248,-0.022603,0.022586,-0.086426,0.014404,-0.996094,0.989714,0.009020,0.142023,-0.014649,-0.999976,0.006794,0.001523,-0.000422,0.817615,16.343041,-1.578604,-0.778579,-0.174230,0.049559,-0.065624,-0.117642,8.812908,0,0.003457244,0
1786464127.413486,0.011585,-0.023402,0.022054,-0.088135,0.014648,-0.995361,0.989685,0.009121,0.142229,-0.014547,-0.999974,0.006783,0.002242,-0.000637,0.831017,16.367062,-1.564758,-0.777491,-0.256468,0.074778,-0.053492,-0.116321,8.813634,0,0.003458961,0
1786464127.433712,0.008922,-0.022870,0.021787,-0.089844,0.015381,-0.994385,0.989655,0.009210,0.142439,-0.014445,-0.999971,0.006889,0.002973,-0.000850,0.842938,16.391378,-1.551043,-0.789731,-0.340000,0.099744,-0.041184,-0.115928,8.814564,0,0.003469859,0
1786464127.453765,0.007457,-0.020739,0.020988,-0.091309,0.016357,-0.992920,0.989624,0.009291,0.142659,-0.014345,-0.999967,0.007105,0.003692,-0.001050,0.854006,16.416908,-1.537756,-0.814691,-0.422222,0.123357,-0.028837,-0.117368,8.815928,0,0.003470688,0
1786464127.473614,0.007990,-0.018076,0.019124,-0.091553,0.016602,-0.991211,0.989591,0.009375,0.142893,-0.014255,-0.999963,0.007295,0.004379,-0.001228,0.865118,16.443973,-1.525546,-0.836616,-0.500764,0.144382,-0.015608,-0.121312,8.817485,0,0.003462642,0
1786464127.493622,0.008390,-0.012350,0.017926,-0.092773,0.016846,-0.988037,0.989554,0.009460,0.143154,-0.014171,-0.999959,0.007467,0.005021,-0.001393,0.876309,16.474321,-1.513989,-0.856468,-0.574121,0.163937,-0.004535,-0.124743,8.820504,0,0.003463339,0
1786464127.513730,0.009322,-0.005825,0.016061,-0.092773,0.017578,-0.985107,0.989511,0.009550,0.143448,-0.014096,-0.999954,0.007686,0.005596,-0.001539,0.887835,16.508413,-1.503457,-0.881838,-0.639842,0.181237,0.006705,-0.127230,8.823279,0,0.003468133,0
1786464127.533700,0.011319,0.000966,0.013398,-0.092285,0.018799,-0.984863,0.989464,0.009650,0.143775,-0.014035,-0.999948,0.007993,0.006093,-0.001655,0.900225,16.546405,-1.494408,-0.917102,-0.696716,0.195231,0.017084,-0.129986,8.823358,0,0.003465850,0
1786464127.553707,0.014248,0.006292,0.008072,-0.093018,0.019287,-0.986328,0.989412,0.009761,0.144129,-0.014003,-0.999943,0.008252,0.006540,-0.001718,0.913464,16.587489,-1.488471,-0.946930,-0.747763,0.203006,0.025037,-0.134965,8.821718,0,0.003465740,0
1786464127.573642,0.016645,0.011752,0.003411,-0.092773,0.018555,-0.987061,0.989355,0.009880,0.144510,-0.013995,-0.999940,0.008322,0.006921,-0.001733,0.927238,16.631748,-1.485280,-0.955128,-0.791393,0.205221,0.032984,-0.140362,8.820832,0,0.003462551,0
1786464127.593574,0.017311,0.018276,0.000748,-0.092773,0.016846,-0.989258,0.989293,0.010000,0.144923,-0.014000,-0.999939,0.008136,0.007226,-0.001722,0.940793,16.679784,-1.483661,-0.933846,-0.826387,0.204101,0.039237,-0.143368,8.818545,0,0.003460035,0
1786464127.613703,0.016912,0.024535,-0.000583,-0.093018,0.015625,-0.990234,0.989227,0.010117,0.145367,-0.014012,-0.999940,0.007837,0.007463,-0.001698,0.953795,16.731426,-1.482804,-0.899570,-0.853607,0.201268,0.043789,-0.141013,8.817568,0,0.003466558,0
1786464127.633644,0.015181,0.029195,-0.001382,-0.092285,0.016602,-0.991455,0.989157,0.010225,0.145835,-0.014027,-0.999939,0.007758,0.007646,-0.001666,0.965805,16.785738,-1.482336,-0.890574,-0.874645,0.197688,0.048386,-0.134543,8.816383,0,0.003463413,0
1786464127.653655,0.012917,0.032791,-0.002714,-0.091797,0.016602,-0.990723,0.989084,0.010322,0.146320,-0.014046,-0.999939,0.007720,0.007785,-0.001620,0.976320,16.842121,-1.482617,-0.886207,-0.890688,0.192595,0.051816,-0.133427,8.817094,0,0.003464064,0
1786464127.673673,0.009854,0.035853,-0.003247,-0.091553,0.016113,-0.990234,0.989008,0.010403,0.146821,-0.014065,-0.999938,0.007655,0.007889,-0.001570,0.984962,16.900267,-1.483190,-0.878701,-0.902653,0.186851,0.054263,-0.133747,8.817552,0,0.003464845,0
1786464127.693834,0.004128,0.038117,-0.002181,-0.091797,0.015625,-0.991943,0.988932,0.010457,0.147333,-0.014075,-0.999938,0.007588,0.007967,-0.001530,0.990473,16.959703,-1.483109,-0.871063,-0.911589,0.182264,0.055609,-0.134018,8.815817,0,0.003471509,0
1786464127.713706,0.000800,0.039315,-0.001382,-0.090088,0.016846,-0.994141,0.988854,0.010495,0.147851,-0.014078,-0.999937,0.007727,0.008019,-0.001499,0.994367,17.019808,-1.482490,-0.886864,-0.917517,0.178838,0.058744,-0.132119,8.813606,0,0.003464234,0
1786464127.733701,-0.001730,0.039049,-0.001382,-0.089111,0.017090,-0.996338,0.988776,0.010522,0.148368,-0.014079,-0.999935,0.007878,0.008058,-0.001467,0.996844,17.079760,-1.481860,-0.904160,-0.921978,0.175439,0.060735,-0.135048,8.811343,0,0.003463967,0
1786464127.753847,-0.004127,0.037584,-0.003513,-0.087646,0.018311,-1.000488,0.988699,0.010536,0.148878,-0.014089,-0.999933,0.008160,0.008091,-0.001415,0.997701,17.138884,-1.482478,-0.936527,-0.925872,0.169765,0.063174,-0.137233,8.807120,0,0.003470261,0
1786464127.773603,-0.005992,0.033856,-0.006176,-0.085938,0.017334,-1.002197,0.988624,0.010538,0.149370,-0.014111,-0.999932,0.008253,0.008147,-0.001339,0.996913,17.195910,-1.484758,-0.947036,-0.932266,0.161138,0.066360,-0.144074,8.805286,0,0.003458334,0
1786464127.793600,-0.007989,0.028263,-0.008307,-0.084717,0.017334,-1.004150,0.988554,0.010528,0.149835,-0.014142,-0.999931,0.008333,0.008240,-0.001242,0.994581,17.249755,-1.488371,-0.956206,-0.942988,0.150166,0.069614,-0.146265,8.803256,0,0.003459618,0
1786464127.813573,-0.009054,0.022005,-0.010703,-0.083984,0.017822,-1.004395,0.988488,0.010511,0.150269,-0.014185,-0.999928,0.008463,0.008388,-0.001122,0.991231,17.300036,-1.493474,-0.970957,-0.960077,0.136751,0.073350,-0.147552,8.802925,0,0.003459582,0
1786464127.833601,-0.009454,0.015746,-0.012035,-0.083740,0.017090,-1.005127,0.988426,0.010490,0.150672,-0.014234,-0.999927,0.008463,0.008592,-0.000991,0.987301,17.346753,-1.499468,-0.970891,-0.983541,0.121901,0.077687,-0.150900,8.802076,0,0.003461872,0
1786464127.853594,-0.008788,0.007890,-0.013233,-0.083008,0.016846,-1.005859,0.988370,0.010470,0.151036,-0.014290,-0.999925,0.008424,0.008863,-0.000850,0.983472,17.388984,-1.506271,-0.966305,-1.014829,0.105967,0.083944,-0.151015,8.801253,0,0.003462129,0
1786464127.873536,-0.008388,-0.000366,-0.014698,-0.082031,0.017334,-1.006592,0.988319,0.010451,0.151359,-0.014354,-0.999922,0.008454,0.009206,-0.000697,0.979621,17.426498,-1.514025,-0.969577,-1.054177,0.088787,0.091894,-0.149670,8.800412,0,0.003460140,0
1786464127.893523,-0.007190,-0.008355,-0.016429,-0.081299,0.016846,-1.007324,0.988275,0.010435,0.151643,-0.014428,-0.999918,0.008402,0.009614,-0.000528,0.976058,17.459458,-1.522918,-0.963524,-1.101201,0.069824,0.100968,-0.150492,8.799525,0,0.003460585,0
1786464127.913560,-0.005193,-0.016611,-0.017761,-0.081543,0.016846,-1.007812,0.988237,0.010428,0.151886,-0.014510,-0.999914,0.008349,0.010103,-0.000349,0.973354,17.487701,-1.532697,-0.957283,-1.157345,0.049626,0.110472,-0.149064,8.798883,0,0.003463010,0
1786464127.933551,-0.002529,-0.024201,-0.019359,-0.080322,0.017578,-1.006592,0.988204,0.010432,0.152091,-0.014603,-0.999908,0.008392,0.010652,-0.000156,0.971940,17.511607,-1.543489,-0.962025,-1.220463,0.028095,0.122888,-0.146719,8.799919,0,0.003462878,0
1786464127.953619,0.001332,-0.030992,-0.021489,-0.080811,0.016846,-1.005371,0.988175,0.010453,0.152263,-0.014709,-0.999902,0.008308,0.011267,0.000057,0.972248,17.531649,-1.555653,-0.952138,-1.291120,0.004233,0.134692,-0.147459,8.800901,0,0.003466105,0
1786464127.973639,0.005593,-0.034987,-0.023620,-0.080566,0.017578,-1.001465,0.988150,0.010494,0.152415,-0.014829,-0.999894,0.008327,0.011916,0.000287,0.974679,17.549416,-1.569112,-0.953980,-1.365779,-0.021567,0.147903,-0.144138,8.804587,0,0.003466438,0
1786464127.993761,0.009455,-0.038715,-0.024818,-0.080322,0.015625,-0.999023,0.988127,0.010551,0.152548,-0.014959,-0.999888,0.008071,0.012593,0.000529,0.978899,17.565076,-1.583388,-0.924296,-1.443574,-0.048966,0.161791,-0.145575,8.806739,0,0.003471086,0
1786464128.013566,0.014382,-0.039781,-0.025883,-0.081055,0.015137,-0.996094,0.988104,0.010631,0.152675,-0.015098,-0.999881,0.007800,0.013276,0.000775,0.985698,17.580140,-1.598330,-0.892852,-1.522004,-0.076914,0.174497,-0.139985,8.809464,0,0.003461043,0
1786464128.033649,0.017178,-0.039514,-0.027215,-0.079590,0.014893,-0.994385,0.988081,0.010724,0.152804,-0.015245,-0.999874,0.007559,0.013944,0.001035,0.993856,17.595374,-1.614071,-0.864759,-1.598750,-0.106597,0.189458,-0.134208,8.810932,0,0.003465354,0
1786464128.053562,0.019841,-0.038982,-0.028413,-0.080566,0.014404,-0.993652,0.988057,0.010829,0.152936,-0.015401,-0.999866,0.007306,0.014605,0.001304,1.003274,17.610929,-1.630544,-0.835283,-1.674732,-0.137207,0.201453,-0.129354,8.811406,0,0.003461320,0
1786464128.073580,0.022504,-0.035253,-0.030943,-0.081299,0.013672,-0.992676,0.988030,0.010945,0.153085,-0.015570,-0.999858,0.007008,0.015232,0.001597,1.013697,17.628652,-1.648522,-0.800599,-1.746755,-0.170797,0.213003,-0.124466,8.812138,0,0.003462777,0
1786464128.093546,0.021040,-0.033655,-0.030144,-0.080811,0.009766,-0.994873,0.988001,0.011051,0.153243,-0.015736,-0.999853,0.006286,0.015825,0.001880,1.023035,17.647316,-1.666126,-0.717160,-1.814782,-0.204094,0.225438,-0.122750,8.809636,0,0.003461671,0
1786464128.113547,0.013716,-0.032590,-0.028680,-0.083496,0.010986,-0.993408,0.987973,0.011123,0.153407,-0.015888,-0.999845,0.005963,0.016429,0.002148,1.028554,17.666565,-1.682808,-0.679544,-1.884174,-0.235009,0.234142,-0.108748,8.810838,0,0.003462292,0
1786464128.133555,0.007857,-0.029394,-0.025351,-0.084229,0.009277,-0.991943,0.987942,0.011168,0.153587,-0.016020,-0.999837,0.005541,0.017002,0.002383,1.031147,17.687622,-1.697512,-0.630598,-1.949881,-0.262341,0.244547,-0.105238,8.811944,0,0.003463088,0
1786464128.153646,0.002664,-0.023935,-0.022155,-0.086182,0.009521,-0.989746,0.987908,0.011189,0.153794,-0.016131,-0.999829,0.005300,0.017537,0.002586,1.031368,17.711771,-1.710235,-0.602368,-2.011234,-0.285768,0.252656,-0.097691,8.813840,0,0.003467210,0
1786464128.173554,-0.007589,-0.019674,-0.016030,-0.086426,0.007324,-0.988525,0.987871,0.011164,0.154022,-0.016204,-0.999822,0.004904,0.018023,0.002727,1.026609,17.738312,-1.719302,-0.556593,-2.066895,-0.302502,0.261907,-0.097157,8.814705,0,0.003462532,0
1786464128.193586,-0.014114,-0.013548,-0.009372,-0.086670,0.007080,-0.985840,0.987831,0.011111,0.154281,-0.016239,-0.999815,0.004633,0.018449,0.002804,1.019308,17.768294,-1.724310,-0.525237,-2.115725,-0.311650,0.269892,-0.090911,8.817156,0,0.003464280,0
1786464128.213654,-0.022104,-0.008755,-0.002048,-0.086914,0.007324,-0.987305,0.987788,0.011025,0.154564,-0.016232,-0.999809,0.004526,0.018825,0.002809,1.008795,17.800946,-1.724859,-0.512818,-2.158790,-0.312318,0.276999,-0.086928,8.815479,0,0.003467133,0
1786464128.233781,-0.029694,-0.003695,0.004876,-0.086426,0.007812,-0.988281,0.987742,0.010907,0.154872,-0.016184,-0.999803,0.004572,0.019142,0.002748,0.995258,17.836426,-1.721176,-0.518114,-2.195086,-0.305006,0.283838,-0.085852,8.814321,0,0.003471808,0
1786464128.253614,-0.033555,-0.000765,0.010868,-0.085938,0.009766,-0.991943,0.987694,0.010777,0.155195,-0.016103,-0.999796,0.004888,0.019420,0.002630,0.980802,17.873515,-1.713800,-0.554533,-2.226988,-0.290625,0.289967,-0.085489,8.810489,0,0.003462781,0
1786464128.273716,-0.037683,0.000833,0.014197,-0.084473,0.010742,-0.995850,0.987645,0.010630,0.155525,-0.016001,-0.999790,0.005279,0.019664,0.002480,0.964687,17.911486,-1.704377,-0.599714,-2.254945,-0.272387,0.296591,-0.091655,8.806358,0,0.003467453,0
