timestamp,gx,gy,gz,ax,ay,az,madgwick_qw,madgwick_qx,madgwick_qy,madgwick_qz,kalman_qw,kalman_qx,kalman_qy,kalman_qz,madgwick_roll_deg,madgwick_pitch_deg,madgwick_yaw_deg,kalman_roll_deg,kalman_pitch_deg,kalman_yaw_deg,robot_accel_x,robot_accel_y,robot_accel_z,kalman_converged,kalman_P_change,convergence_counter
1785960014.257314,0.000614,0.000558,-0.001450,-0.119629,0.026123,-0.991943,1.000000,0.000073,0.000325,-0.000007,0.999894,0.013979,0.004030,-0.000008,0.008419,0.037264,-0.000828,1.601951,0.461768,0.005572,-0.119682,0.026183,8.818057,0,0.087903733,0
1785960014.259837,0.000614,0.001090,-0.001317,-0.119629,0.024902,-0.991699,1.000000,0.000144,0.000654,-0.000014,0.999429,0.033129,0.006692,-0.000010,0.016480,0.074910,-0.001575,3.797251,0.766446,0.024287,-0.198717,0.299153,8.814148,0,0.029350972,0
1785960014.261867,0.000348,0.000957,-0.001317,-0.119385,0.025635,-0.991699,0.999999,0.000215,0.000981,-0.000020,0.998270,0.058205,0.008276,-0.000011,0.024619,0.112431,-0.002316,6.674233,0.946861,0.053898,-0.250629,0.675260,8.795888,0,0.014757053,0
1785960014.263718,-0.000052,0.001090,-0.001183,-0.119629,0.025146,-0.991455,0.999999,0.000283,0.001310,-0.000026,0.995983,0.089130,0.008619,-0.000013,0.032372,0.150061,-0.002976,10.228249,0.983839,0.086578,-0.281761,1.165148,8.750732,0,0.008925829,0
1785960014.265581,0.000481,0.000824,-0.001450,-0.119629,0.025879,-0.991943,0.999999,0.000355,0.001636,-0.000034,0.991987,0.126126,0.007316,-0.000014,0.040640,0.187494,-0.003783,14.492740,0.831897,0.104119,-0.288089,1.767592,8.660733,0,0.006017111,0
1785960014.269441,0.000880,0.001224,-0.001050,-0.119629,0.025879,-0.991455,0.999998,0.000429,0.001965,-0.000039,0.985557,0.169300,0.003761,-0.000016,0.049138,0.225155,-0.004355,19.494674,0.425062,0.071122,-0.262112,2.480676,8.505375,0,0.004451727,0
1785960014.283680,0.000481,0.000824,-0.001050,-0.119629,0.025635,-0.991211,0.999997,0.000500,0.002292,-0.000044,0.975234,0.221152,-0.003211,-0.000023,0.057339,0.262603,-0.004922,25.553753,-0.358259,-0.083931,-0.192563,3.299392,8.256129,0,0.003921810,0
1785960014.303862,0.000880,0.000824,-0.001050,-0.120361,0.025391,-0.991699,0.999996,0.000573,0.002619,-0.000049,0.958739,0.283857,-0.015619,-0.000031,0.065655,0.300074,-0.005485,32.992894,-1.715172,-0.511720,-0.059258,4.257085,7.858450,0,0.003811782,0
1785960014.324834,0.000348,0.000558,-0.000651,-0.118896,0.026367,-0.991699,0.999995,0.000646,0.002944,-0.000053,0.933398,0.357010,-0.036222,-0.000036,0.074035,0.337312,-0.005812,41.912529,-3.875796,-1.489245,0.174557,5.365926,7.232600,0,0.003765928,0
1785960014.343850,0.000614,0.000691,-0.000917,-0.119629,0.025879,-0.991455,0.999994,0.000719,0.003270,-0.000057,0.897248,0.436297,-0.067753,-0.000040,0.082385,0.374668,-0.006287,52.072365,-6.981429,-3.418846,0.543257,6.564022,6.292045,0,0.003646237,0
1785960014.363848,0.000481,0.000691,-0.000917,-0.119629,0.025635,-0.991211,0.999993,0.000791,0.003596,-0.000062,0.849393,0.515595,-0.112662,-0.000042,0.090590,0.412037,-0.006758,63.174364,-11.031294,-6.801871,1.072530,7.706349,4.993895,0,0.003600437,0
1785960014.383978,0.000614,0.000558,-0.001317,-0.119629,0.026367,-0.991943,0.999992,0.000865,0.003921,-0.000068,0.791677,0.586368,-0.171525,-0.000046,0.099075,0.449286,-0.007450,74.728087,-15.755355,-12.068539,1.757191,8.619003,3.353199,0,0.003571994,0
1785960014.403835,0.000614,0.001090,-0.000917,-0.118652,0.026123,-0.991211,0.999991,0.000939,0.004248,-0.000073,0.728859,0.640378,-0.242242,-0.000041,0.107554,0.486841,-0.007908,86.171485,-20.675098,-19.370416,2.544842,9.134230,1.495612,0,0.003538971,0
1785960014.423635,0.000747,0.000691,-0.001050,-0.118652,0.025391,-0.991455,0.999989,0.001012,0.004575,-0.000078,0.666427,0.673120,-0.320601,-0.000037,0.115907,0.524211,-0.008439,97.099987,-25.294063,-28.517608,3.344749,9.183201,-0.378709,0,0.003511791,0
1785960014.443726,0.000481,0.000691,-0.001050,-0.119873,0.026123,-0.991211,0.999987,0.001085,0.004900,-0.000084,0.608432,0.684428,-0.401706,-0.000033,0.124237,0.561553,-0.008964,107.312896,-29.260243,-39.075566,4.071419,8.827673,-2.087517,0,0.003503889,0
1785960014.463678,0.000481,0.000691,-0.001050,-0.119629,0.026123,-0.991455,0.999986,0.001157,0.005226,-0.000089,0.557325,0.676735,-0.481060,-0.000028,0.132581,0.598891,-0.009483,116.662403,-32.423712,-50.478477,4.675140,8.196783,-3.538338,0,0.003491985,0
1785960014.483628,0.000880,0.001090,-0.001183,-0.119629,0.025635,-0.991211,0.999984,0.001231,0.005554,-0.000095,0.513580,0.654034,-0.555405,-0.000019,0.141022,0.636487,-0.010074,125.117561,-34.782676,-62.200201,5.140167,7.425856,-4.707038,0,0.003482974,0
1785960014.503638,0.000614,0.001224,-0.001183,-0.120117,0.025635,-0.990967,0.999982,0.001303,0.005883,-0.000101,0.476562,0.620537,-0.622754,-0.000011,0.149284,0.674165,-0.010659,132.699503,-36.409168,-73.813066,5.476106,6.616258,-5.625844,0,0.003478738,0
1785960014.523674,0.000348,0.001090,-0.001317,-0.119629,0.025879,-0.991455,0.999980,0.001375,0.006211,-0.000107,0.445343,0.579938,-0.682159,-0.000007,0.157486,0.711746,-0.011315,139.431294,-37.414831,-84.993230,5.703039,5.828248,-6.345440,0,0.003476656,0
1785960014.543631,0.000481,0.000824,-0.000917,-0.119141,0.025391,-0.991455,0.999978,0.001446,0.006538,-0.000112,0.418868,0.535286,-0.733498,-0.000003,0.165664,0.749196,-0.011739,145.361238,-37.913746,-95.530744,5.841239,5.092825,-6.910162,0,0.003471741,0
1785960014.563643,0.001413,0.001090,-0.001050,-0.119141,0.026123,-0.991699,0.999975,0.001524,0.006866,-0.000117,0.396075,0.489089,-0.777120,0.000007,0.174572,0.786756,-0.012230,150.553153,-37.995811,-105.291363,5.908902,4.425187,-7.359355,0,0.003470354,0
1785960014.583631,0.000081,0.000425,-0.001183,-0.119141,0.025635,-0.991699,0.999973,0.001594,0.007190,-0.000123,0.376157,0.443024,-0.813778,0.000004,0.182589,0.823961,-0.012795,155.069721,-37.750311,-114.227828,5.919901,3.826364,-7.723752,0,0.003468324,0
1785960014.603666,0.000481,0.000691,-0.000917,-0.119873,0.025635,-0.991455,0.999970,0.001666,0.007516,-0.000128,0.358355,0.398409,-0.844305,0.000007,0.190795,0.861328,-0.013202,158.982562,-37.238058,-122.324734,5.886059,3.295215,-8.025283,0,0.003468777,0
1785960014.623976,0.000614,0.000691,-0.001317,-0.119629,0.025391,-0.990723,0.999968,0.001738,0.007842,-0.000134,0.342196,0.356000,-0.869578,0.000008,0.199023,0.898706,-0.013834,162.352297,-36.522436,-129.607728,5.816706,2.826537,-8.281101,0,0.003480864,0
1785960014.643643,0.000614,0.000558,-0.001050,-0.119385,0.025146,-0.991943,0.999965,0.001809,0.008168,-0.000140,0.327335,0.316465,-0.890338,0.000009,0.207205,0.936018,-0.014309,165.229204,-35.653628,-136.091423,5.718948,2.415180,-8.504447,0,0.003462513,0
1785960014.663623,0.000481,0.000691,-0.001050,-0.119629,0.025635,-0.991699,0.999962,0.001881,0.008494,-0.000145,0.313351,0.280101,-0.907389,0.000010,0.215425,0.973381,-0.014777,167.679305,-34.657443,-141.832552,5.598525,2.057954,-8.699390,0,0.003462044,0
1785960014.683652,0.000481,0.001090,-0.000917,-0.119385,0.025391,-0.992188,0.999959,0.001952,0.008822,-0.000150,0.300054,0.246921,-0.921410,0.000012,0.223597,1.010983,-0.015163,169.757467,-33.569789,-146.899555,5.459397,1.747287,-8.875612,0,0.003463778,0
1785960014.704135,0.001013,0.000558,-0.001183,-0.119385,0.025391,-0.991211,0.999956,0.002026,0.009148,-0.000156,0.287180,0.216893,-0.932998,0.000015,0.232072,1.048280,-0.015698,171.517019,-32.403862,-151.356928,5.305135,1.478785,-9.034738,0,0.003484493,0
1785960014.723771,0.000747,0.000824,-0.000917,-0.119141,0.025635,-0.991211,0.999953,0.002100,0.009474,-0.000160,0.274688,0.190065,-0.942561,0.000017,0.240475,1.085712,-0.016073,172.991390,-31.186600,-155.240429,5.137990,1.247408,-9.183033,0,0.003463923,0
1785960014.743743,0.000481,0.000691,-0.001050,-0.119141,0.026123,-0.991455,0.999950,0.002173,0.009800,-0.000165,0.262420,0.166235,-0.950527,0.000016,0.248851,1.123040,-0.016517,174.224341,-29.925906,-158.615219,4.960836,1.050167,-9.320997,0,0.003462804,0
1785960014.763713,0.000348,0.001090,-0.001183,-0.119629,0.025146,-0.991211,0.999946,0.002243,0.010128,-0.000171,0.250255,0.145051,-0.957253,0.000015,0.256873,1.160656,-0.017036,175.257407,-28.627910,-161.556471,4.774546,0.880795,-9.449995,0,0.003461810,0
1785960014.783696,0.000481,0.000425,-0.001050,-0.119873,0.025391,-0.991211,0.999943,0.002314,0.010453,-0.000177,0.238148,0.126428,-0.962965,0.000014,0.265023,1.197880,-0.017474,176.116042,-27.300656,-164.097165,4.580348,0.737336,-9.572421,0,0.003461662,0
1785960014.803805,0.000880,0.000558,-0.001050,-0.119141,0.024902,-0.991699,0.999939,0.002387,0.010779,-0.000182,0.226157,0.110050,-0.967854,0.000016,0.273317,1.235197,-0.017909,176.828246,-25.962185,-166.294738,4.380397,0.615317,-9.688921,0,0.003466905,0
1785960014.823698,0.000747,0.000691,-0.001050,-0.118896,0.025391,-0.991943,0.999935,0.002460,0.011105,-0.000187,0.214217,0.095830,-0.972074,0.000017,0.281673,1.272562,-0.018335,177.413813,-24.612153,-168.175395,4.175816,0.513354,-9.798386,0,0.003461658,0
1785960014.844186,0.000215,0.000824,-0.001317,-0.118652,0.025635,-0.991943,0.999931,0.002531,0.011431,-0.000194,0.202273,0.083484,-0.975764,0.000014,0.289797,1.309986,-0.018907,177.895153,-23.249954,-169.786617,3.967095,0.428138,-9.901532,0,0.003483081,0
1785960014.863752,0.001147,0.001090,-0.001050,-0.119385,0.025635,-0.991943,0.999927,0.002606,0.011759,-0.000199,0.190270,0.072838,-0.979026,0.000019,0.298418,1.347571,-0.019320,178.290717,-21.873709,-171.159908,3.753232,0.356556,-9.999131,0,0.003459878,0
1785960014.883746,0.000348,0.001224,-0.001583,-0.119873,0.025635,-0.991211,0.999923,0.002677,0.012088,-0.000207,0.178186,0.063672,-0.981935,0.000016,0.306550,1.385238,-0.020034,178.613965,-20.483361,-172.329452,3.535176,0.297235,-10.090824,0,0.003460686,0
1785960014.903914,0.000614,0.000425,-0.001183,-0.119141,0.025879,-0.990967,0.999919,0.002750,0.012412,-0.000213,0.166118,0.055816,-0.984525,0.000016,0.314939,1.422425,-0.020514,178.877505,-19.092669,-173.321539,3.313799,0.248133,-10.178002,0,0.003468692,0
1785960014.923937,0.000481,0.000691,-0.001317,-0.118896,0.025879,-0.991699,0.999915,0.002823,0.012738,-0.000220,0.154051,0.049094,-0.986843,0.000015,0.323264,1.459761,-0.021063,179.092057,-17.700958,-174.162597,3.090050,0.207480,-10.260237,0,0.003468504,0
1785960014.944113,0.000081,0.000025,-0.001317,-0.119629,0.024902,-0.991455,0.999910,0.002891,0.013061,-0.000226,0.141855,0.043255,-0.988942,0.000011,0.331082,1.496775,-0.021617,179.268750,-16.294431,-174.886454,2.863093,0.173055,-10.335840,0,0.003474933,0
1785960014.963937,0.000348,0.000824,-0.001050,-0.119629,0.025635,-0.991455,0.999906,0.002963,0.013387,-0.000232,0.129642,0.038371,-0.990818,0.000011,0.339236,1.534207,-0.022005,179.411415,-14.886433,-175.487597,2.632949,0.145797,-10.406601,0,0.003464747,0
1785960014.983737,0.000481,0.001224,-0.001317,-0.119629,0.025635,-0.991455,0.999901,0.003035,0.013716,-0.000238,0.117407,0.034233,-0.992494,0.000011,0.347462,1.571869,-0.022539,179.527707,-13.476828,-175.993296,2.400828,0.123002,-10.471641,0,0.003456085,0
1785960015.004092,0.000614,0.000425,-0.001450,-0.119385,0.025879,-0.991455,0.999897,0.003108,0.014041,-0.000246,0.105131,0.030749,-0.993983,0.000013,0.355833,1.609057,-0.023146,179.622660,-12.063583,-176.416311,2.166938,0.104464,-10.530986,0,0.003473197,0
1785960015.023725,0.000747,0.001224,-0.000917,-0.119629,0.025391,-0.991455,0.999892,0.003181,0.014369,-0.000250,0.092827,0.027755,-0.995295,0.000015,0.364161,1.646729,-0.023442,179.701368,-10.648403,-176.777444,1.930863,0.088466,-10.584557,0,0.003455299,0
1785960015.043757,0.000747,0.000558,-0.001050,-0.119629,0.025879,-0.991943,0.999887,0.003254,0.014694,-0.000256,0.080487,0.025279,-0.996435,0.000017,0.372604,1.683995,-0.023808,179.765803,-9.230205,-177.074560,1.693187,0.076023,-10.632860,0,0.003458860,0
1785960015.063721,0.000614,0.000957,-0.000784,-0.119385,0.025635,-0.991943,0.999882,0.003327,0.015022,-0.000259,0.068148,0.023164,-0.997406,0.000018,0.380931,1.721497,-0.024017,179.819533,-7.813167,-177.326862,1.454340,0.065120,-10.674811,0,0.003458581,0
1785960015.084351,0.001013,0.001090,-0.001317,-0.119141,0.026367,-0.991943,0.999876,0.003403,0.015349,-0.000266,0.055773,0.021458,-0.998213,0.000022,0.389664,1.759036,-0.024519,179.864569,-6.392982,-177.529521,1.214682,0.056812,-10.710795,0,0.003486834,0
1785960015.103741,0.000614,0.000291,-0.001050,-0.119629,0.025635,-0.991943,0.999871,0.003476,0.015673,-0.000271,0.043358,0.019945,-0.998860,0.000022,0.397977,1.796159,-0.024872,179.903057,-4.969081,-177.707968,0.972742,0.048585,-10.740907,0,0.003455223,0
1785960015.123764,0.000481,0.000824,-0.001183,-0.119141,0.026367,-0.991699,0.999866,0.003550,0.015999,-0.000277,0.030972,0.018749,-0.999344,0.000021,0.406409,1.833545,-0.025288,179.935735,-3.549158,-177.848394,0.730745,0.042829,-10.764801,0,0.003458366,0
1785960015.143807,0.000481,0.001224,-0.000917,-0.119141,0.025635,-0.991943,0.999860,0.003622,0.016328,-0.000282,0.018573,0.017657,-0.999672,0.000020,0.414676,1.871195,-0.025550,179.964731,-2.128137,-177.975498,0.488387,0.036533,-10.783107,0,0.003461630,0
1785960015.164126,0.000747,0.000824,-0.001050,-0.119629,0.025391,-0.991699,0.999854,0.003695,0.016654,-0.000287,0.006085,0.016711,-0.999842,0.000022,0.423011,1.908634,-0.025887,179.990882,-0.697191,-178.084935,0.244825,0.031284,-10.794925,0,0.003475828,0
1785960015.184045,0.000481,0.000425,-0.001050,-0.119385,0.026367,-0.991943,0.999849,0.003768,0.016978,-0.000293,-0.006381,0.016012,-0.999851,0.000021,0.431433,1.945791,-0.026213,-179.985850,0.731052,-178.164931,0.000067,0.027837,-10.801216,0,0.003469497,0
1785960015.203797,0.000614,0.000291,-0.001317,-0.119629,0.025635,-0.991699,0.999843,0.003841,0.017302,-0.000299,-0.018866,0.015341,-0.999704,0.000022,0.439746,1.982912,-0.026692,-179.964313,2.161757,-178.240992,-0.244736,0.023090,-10.800901,0,0.003457592,0
1785960015.223778,0.000614,0.000425,-0.001050,-0.119629,0.026123,-0.991699,0.999837,0.003915,0.017627,-0.000305,-0.031354,0.014817,-0.999398,0.000022,0.448177,2.020084,-0.027010,-179.944097,3.593096,-178.299419,-0.489586,0.019889,-10.794718,0,0.003458375,0
1785960015.243746,0.000348,0.000691,-0.000917,-0.119141,0.025391,-0.990967,0.999831,0.003986,0.017952,-0.000309,-0.043798,0.014290,-0.998938,0.000021,0.456316,2.057438,-0.027249,-179.925624,5.019941,-178.357645,-0.733800,0.015759,-10.781687,0,0.003458444,0
1785960015.263916,0.000747,0.000691,-0.001183,-0.119385,0.025635,-0.991211,0.999825,0.004059,0.018278,-0.000315,-0.056271,0.013863,-0.998319,0.000023,0.464722,2.094783,-0.027634,-179.907407,6.450952,-178.403615,-0.977646,0.012781,-10.763586,0,0.003467065,0
1785960015.283680,0.000348,0.001090,-0.001583,-0.118896,0.026611,-0.991699,0.999818,0.004133,0.018606,-0.000323,-0.068662,0.013597,-0.997547,0.000022,0.473138,2.132304,-0.028233,-179.889500,7.873511,-178.430520,-1.220863,0.010757,-10.739597,0,0.003456300,0
1785960015.303676,0.000348,0.000957,-0.000917,-0.119873,0.025635,-0.992432,0.999812,0.004204,0.018933,-0.000328,-0.081137,0.013246,-0.996615,0.000020,0.481300,2.169805,-0.028454,-179.872830,9.307027,-178.466691,-1.463524,0.006801,-10.709959,0,0.003458009,0
1785960015.323890,0.000081,0.001090,-0.001317,-0.119629,0.025879,-0.990723,0.999805,0.004275,0.019260,-0.000334,-0.093607,0.012973,-0.995525,0.000018,0.489367,2.207369,-0.028896,-179.856294,10.741337,-178.493313,-1.705934,0.004334,-10.671594,0,0.003468649,0
1785960015.343713,0.001147,0.000957,-0.001450,-0.119873,0.025635,-0.991455,0.999799,0.004350,0.019588,-0.000342,-0.106065,0.012699,-0.994278,0.000024,0.497974,2.244871,-0.029413,-179.839273,12.175990,-178.519329,-1.948032,0.001189,-10.629573,0,0.003459983,0
1785960015.363794,-0.000052,0.000558,-0.001050,-0.120117,0.025146,-0.991455,0.999792,0.004418,0.019913,-0.000347,-0.118536,0.012404,-0.992872,0.000020,0.505785,2.282167,-0.029702,-179.824329,13.614148,-178.547474,-2.189087,-0.001787,-10.580758,0,0.003464439,0
1785960015.383962,0.000348,0.000558,-0.001183,-0.119141,0.025391,-0.991211,0.999785,0.004489,0.020238,-0.000353,-0.130894,0.012174,-0.991322,0.000020,0.513922,2.319443,-0.030058,-179.808626,15.041379,-178.567606,-2.428130,-0.003964,-10.525559,0,0.003471527,0
1785960015.403910,0.000747,0.000558,-0.001317,-0.119629,0.025635,-0.991943,0.999778,0.004563,0.020563,-0.000360,-0.143261,0.011990,-0.989612,0.000023,0.522316,2.356712,-0.030483,-179.792047,16.471856,-178.581561,-2.665379,-0.006217,-10.465814,0,0.003467511,0
1785960015.423997,0.000614,0.001090,-0.000917,-0.118652,0.025635,-0.992188,0.999771,0.004636,0.020891,-0.000364,-0.155490,0.011818,-0.987767,0.000024,0.530691,2.394273,-0.030670,-179.775876,17.889122,-178.593781,-2.900015,-0.008677,-10.399575,0,0.003470380,0
1785960015.444276,0.001013,0.000558,-0.001317,-0.119629,0.025391,-0.991455,0.999764,0.004710,0.021216,-0.000371,-0.167813,0.011636,-0.985750,0.000029,0.539186,2.431552,-0.031087,-179.759440,19.319979,-178.606423,-3.132917,-0.011400,-10.327130,0,0.003480724,0
1785960015.463874,0.000747,0.001224,-0.000917,-0.119385,0.025635,-0.992676,0.999756,0.004783,0.021545,-0.000376,-0.180024,0.011491,-0.983595,0.000030,0.547604,2.469196,-0.031264,-179.742932,20.740812,-178.614308,-3.364735,-0.013428,-10.250227,0,0.003459478,0
1785960015.484742,0.000614,0.000558,-0.001050,-0.119385,0.025879,-0.991943,0.999749,0.004857,0.021870,-0.000381,-0.192258,0.011383,-0.981278,0.000030,0.555997,2.506447,-0.031513,-179.725532,22.167561,-178.617008,-3.593400,-0.015477,-10.166124,0,0.003497681,0
1785960015.504773,0.000614,0.000558,-0.001317,-0.118896,0.025635,-0.991455,0.999741,0.004930,0.022195,-0.000388,-0.204394,0.011254,-0.978824,0.000031,0.564355,2.543705,-0.031911,-179.708619,23.586411,-178.621744,-3.820268,-0.018095,-10.076279,0,0.003490744,0
1785960015.523795,0.000348,0.000425,-0.001183,-0.119629,0.025635,-0.991943,0.999734,0.005001,0.022519,-0.000394,-0.216491,0.011130,-0.976221,0.000029,0.572529,2.580893,-0.032229,-179.691757,25.004203,-178.625200,-4.044846,-0.020234,-9.982308,0,0.003442448,0
1785960015.543981,0.000215,0.001090,-0.001050,-0.119873,0.025635,-0.991943,0.999726,0.005072,0.022847,-0.000399,-0.228570,0.011014,-0.973465,0.000027,0.580620,2.618464,-0.032463,-179.674562,26.423976,-178.627158,-4.266213,-0.022322,-9.882481,0,0.003455681,0
1785960015.563899,0.000747,0.000824,-0.001317,-0.119141,0.026367,-0.991211,0.999718,0.005147,0.023173,-0.000406,-0.240532,0.010982,-0.970579,0.000029,0.589200,2.655841,-0.032836,-179.654001,27.833929,-178.617671,-4.484542,-0.023777,-9.776246,0,0.003454265,0
1785960015.583992,0.000747,0.000691,-0.001583,-0.119629,0.025391,-0.991211,0.999710,0.005220,0.023499,-0.000414,-0.252495,0.010835,-0.967538,0.000032,0.597542,2.693194,-0.033369,-179.636600,29.248346,-178.621949,-4.699896,-0.027272,-9.666143,0,0.003460668,0
1785960015.603705,0.000348,0.000291,-0.001317,-0.119873,0.025146,-0.991943,0.999702,0.005290,0.023822,-0.000420,-0.264402,0.010675,-0.964353,0.000031,0.605601,2.730329,-0.033748,-179.620032,30.660729,-178.627384,-4.912949,-0.029324,-9.551122,0,0.003449283,0
1785960015.623731,0.000481,0.001090,-0.001317,-0.119629,0.025391,-0.991943,0.999694,0.005362,0.024150,-0.000427,-0.276220,0.010561,-0.961036,0.000031,0.613799,2.767908,-0.034115,-179.601506,32.067222,-178.626314,-5.122085,-0.030784,-9.430448,0,0.003454030,0
1785960015.643740,0.000614,0.000691,-0.001050,-0.119873,0.025391,-0.991455,0.999686,0.005434,0.024476,-0.000432,-0.288008,0.010454,-0.957571,0.000032,0.622070,2.805258,-0.034327,-179.582184,33.475215,-178.623377,-5.328021,-0.032640,-9.304572,0,0.003456875,0
1785960015.663744,0.000614,0.000824,-0.001050,-0.118896,0.025635,-0.991943,0.999677,0.005507,0.024802,-0.000438,-0.299628,0.010380,-0.954000,0.000032,0.630438,2.842664,-0.034528,-179.561285,34.868053,-178.615453,-5.529722,-0.034250,-9.174575,0,0.003458825,0
1785960015.683745,0.000880,0.000558,-0.001183,-0.118652,0.025635,-0.991455,0.999669,0.005582,0.025127,-0.000444,-0.311162,0.010308,-0.950301,0.000035,0.638967,2.879914,-0.034801,-179.539432,36.255966,-178.606333,-5.726824,-0.036269,-9.040098,0,0.003460168,0
1785960015.703844,0.000348,0.000824,-0.001050,-0.119629,0.025391,-0.991211,0.999660,0.005653,0.025454,-0.000449,-0.322723,0.010211,-0.946438,0.000034,0.647100,2.917336,-0.034995,-179.518446,37.652713,-178.599562,-5.921067,-0.038376,-8.901668,0,0.003465339,0
1785960015.723792,0.000348,0.001090,-0.001050,-0.119629,0.025879,-0.991211,0.999651,0.005725,0.025781,-0.000454,-0.334201,0.010174,-0.942447,0.000032,0.655335,2.954889,-0.035177,-179.493848,39.045148,-178.583561,-6.112130,-0.039578,-8.757918,0,0.003462831,0
1785960015.743718,0.000215,0.000824,-0.001183,-0.119141,0.025879,-0.991943,0.999642,0.005796,0.026107,-0.000460,-0.345543,0.010129,-0.938348,0.000031,0.663513,2.992284,-0.035431,-179.468808,40.426978,-178.567496,-6.298651,-0.041604,-8.610682,0,0.003460011,0
1785960015.763690,0.000747,0.000558,-0.001050,-0.119629,0.025635,-0.991455,0.999633,0.005870,0.026432,-0.000466,-0.356857,0.010052,-0.934105,0.000033,0.671926,3.029541,-0.035609,-179.443764,41.811550,-178.554437,-6.481117,-0.043843,-8.458900,0,0.003459806,0
1785960015.783679,0.000215,0.001090,-0.000917,-0.119629,0.025879,-0.991211,0.999624,0.005941,0.026760,-0.000470,-0.368084,0.010007,-0.929739,0.000031,0.680091,3.067091,-0.035699,-179.416570,43.191839,-178.535718,-6.659625,-0.045255,-8.302810,0,0.003460402,0
1785960015.804075,0.000348,0.000691,-0.000917,-0.119629,0.025391,-0.991211,0.999615,0.006012,0.027086,-0.000475,-0.379248,0.009907,-0.925242,0.000030,0.688231,3.104433,-0.035791,-179.391181,44.570970,-178.523586,-6.833915,-0.047613,-8.143073,0,0.003478179,0
1785960015.823697,0.000747,0.000558,-0.001050,-0.119873,0.026123,-0.991455,0.999606,0.006086,0.027410,-0.000480,-0.390321,0.009894,-0.920626,0.000033,0.696735,3.141669,-0.035948,-179.358599,45.945422,-178.496583,-7.004376,-0.048379,-7.979599,0,0.003458589,0
1785960015.845062,0.000481,0.000425,-0.001183,-0.119385,0.025635,-0.991699,0.999596,0.006159,0.027735,-0.000486,-0.401323,0.009820,-0.915884,0.000034,0.705006,3.178847,-0.036181,-179.328597,47.318206,-178.477262,-7.169549,-0.050974,-7.812652,0,0.003518368,0
1785960015.863945,0.000614,0.000425,-0.000917,-0.119629,0.025635,-0.992432,0.999587,0.006232,0.028059,-0.000491,-0.412174,0.009748,-0.911053,0.000034,0.713352,3.216024,-0.036257,-179.297301,48.679196,-178.456145,-7.331199,-0.052497,-7.642487,0,0.003457176,0
1785960015.883862,0.000481,0.000824,-0.001050,-0.119629,0.025635,-0.991211,0.999577,0.006304,0.028385,-0.000496,-0.422937,0.009686,-0.906108,0.000034,0.721618,3.253430,-0.036401,-179.263520,50.036275,-178.431342,-7.487070,-0.054020,-7.468136,0,0.003455363,0
1785960015.903729,0.000614,0.001357,-0.000917,-0.119385,0.026367,-0.991455,0.999567,0.006378,0.028714,-0.000501,-0.433567,0.009705,-0.901069,0.000035,0.730124,3.291105,-0.036450,-179.221549,51.384084,-178.391353,-7.638099,-0.054838,-7.292123,0,0.003451824,0
1785960015.923741,0.000747,0.000824,-0.001183,-0.119629,0.025391,-0.991699,0.999557,0.006451,0.029040,-0.000507,-0.444125,0.009601,-0.895913,0.000038,0.738491,3.328522,-0.036662,-179.186592,52.730392,-178.368803,-7.784540,-0.058062,-7.113647,0,0.003455352,0
1785960015.943747,0.000348,0.000824,-0.001317,-0.120117,0.026123,-0.991943,0.999547,0.006523,0.029366,-0.000514,-0.454625,0.009594,-0.890631,0.000038,0.746751,3.365912,-0.036939,-179.141445,54.076919,-178.327430,-7.926763,-0.058458,-6.932079,0,0.003457757,0
1785960015.964552,0.000614,0.001224,-0.001583,-0.119629,0.025391,-0.991455,0.999537,0.006596,0.029694,-0.000522,-0.465018,0.009501,-0.885250,0.000041,0.755031,3.403559,-0.037367,-179.100606,55.417853,-178.297810,-8.063668,-0.061186,-6.746523,0,0.003493699,0
1785960015.983740,0.000747,0.000957,-0.000917,-0.119873,0.025635,-0.990723,0.999527,0.006669,0.030021,-0.000526,-0.475290,0.009446,-0.879779,0.000042,0.763447,3.441040,-0.037407,-179.053908,56.751303,-178.258625,-8.196472,-0.061987,-6.558214,0,0.003451752,0
1785960016.003746,0.000614,0.000425,-0.001450,-0.119873,0.025391,-0.992676,0.999517,0.006741,0.030346,-0.000534,-0.485441,0.009369,-0.874219,0.000044,0.771722,3.478229,-0.037755,-179.006055,58.077431,-178.220143,-8.323913,-0.063723,-6.370581,0,0.003455031,0
1785960016.024135,0.000747,0.000824,-0.001716,-0.119385,0.025635,-0.992188,0.999506,0.006815,0.030672,-0.000542,-0.495465,0.009332,-0.868578,0.000048,0.780134,3.515634,-0.038242,-178.949979,59.395113,-178.170051,-8.445662,-0.064718,-6.178805,0,0.003473869,0
1785960016.043682,0.001013,0.000824,-0.001450,-0.119141,0.026123,-0.991455,0.999496,0.006891,0.030998,-0.000550,-0.505342,0.009346,-0.862868,0.000051,0.788815,3.553014,-0.038566,-178.883618,60.702029,-178.105173,-8.562510,-0.065740,-5.985166,0,0.003452134,0
1785960016.063691,0.000348,0.000957,-0.001317,-0.119141,0.025879,-0.990723,0.999485,0.006963,0.031325,-0.000556,-0.515118,0.009324,-0.857068,0.000049,0.797073,3.590478,-0.038809,-178.817021,62.004214,-178.042470,-8.674214,-0.067910,-5.790513,0,0.003455478,0
1785960016.084324,0.000747,0.001357,-0.001050,-0.120117,0.025391,-0.991699,0.999474,0.007036,0.031654,-0.000562,-0.524879,0.009241,-0.851127,0.000050,0.805433,3.628198,-0.038899,-178.751394,63.313389,-177.985964,-8.782039,-0.069938,-5.595837,0,0.003484606,0
1785960016.104026,0.000481,0.001224,-0.000917,-0.119141,0.025635,-0.991211,0.999463,0.007108,0.031982,-0.000566,-0.534433,0.009203,-0.845160,0.000048,0.813735,3.665821,-0.038903,-178.674910,64.603722,-177.914459,-8.884035,-0.070570,-5.396146,0,0.003466840,0
1785960016.125032,0.000747,0.000957,-0.001183,-0.119385,0.025879,-0.991699,0.999452,0.007182,0.032308,-0.000572,-0.543933,0.009193,-0.839078,0.000050,0.822217,3.703285,-0.039054,-178.585080,65.895757,-177.827486,-8.981289,-0.071702,-5.198028,0,0.003509192,0
1785960016.143789,0.000614,0.000824,-0.001317,-0.120117,0.025879,-0.992188,0.999441,0.007256,0.032634,-0.000579,-0.553306,0.009177,-0.832928,0.000050,0.830588,3.740680,-0.039279,-178.487236,67.179803,-177.732737,-9.074658,-0.073316,-4.997488,0,0.003444960,0
1785960016.163975,0.000081,0.000824,-0.001050,-0.119629,0.025879,-0.991211,0.999430,0.007326,0.032960,-0.000584,-0.562544,0.009163,-0.826716,0.000046,0.838685,3.778067,-0.039345,-178.379391,68.454801,-177.627363,-9.161700,-0.074762,-4.794751,0,0.003457608,0
1785960016.183724,0.000747,0.000824,-0.001317,-0.119629,0.026123,-0.991943,0.999418,0.007401,0.033286,-0.000591,-0.571649,0.009169,-0.820447,0.000049,0.847200,3.815447,-0.039555,-178.253588,69.720713,-177.502827,-9.244124,-0.076053,-4.593225,0,0.003448520,0
1785960016.203743,0.000481,0.001090,-0.001183,-0.119141,0.025635,-0.990723,0.999407,0.007473,0.033614,-0.000597,-0.580611,0.009118,-0.814130,0.000049,0.855496,3.852993,-0.039686,-178.124638,70.976429,-177.379499,-9.320983,-0.078238,-4.389455,0,0.003453143,0
1785960016.223896,0.000081,0.000291,-0.000917,-0.119629,0.025391,-0.991699,0.999395,0.007543,0.033937,-0.000602,-0.589497,0.009048,-0.807720,0.000045,0.863506,3.890093,-0.039670,-177.983283,72.231306,-177.244904,-9.393830,-0.079430,-4.187680,0,0.003462368,0
1785960016.243843,0.000614,0.000291,-0.000784,-0.119141,0.025635,-0.991943,0.999384,0.007616,0.034261,-0.000606,-0.598223,0.009016,-0.801279,0.000044,0.871894,3.927177,-0.039568,-177.812331,73.473133,-177.077708,-9.461148,-0.079902,-3.983909,0,0.003460501,0
1785960016.263702,0.000481,0.001224,-0.001317,-0.118896,0.025635,-0.991455,0.999372,0.007688,0.034589,-0.000612,-0.606804,0.008994,-0.794801,0.000046,0.880196,3.964797,-0.039757,-177.612812,74.703920,-176.881274,-9.523538,-0.081163,-3.780249,0,0.003455399,0
1785960016.283660,0.000215,0.001090,-0.001317,-0.119629,0.025879,-0.991455,0.999360,0.007760,0.034916,-0.000619,-0.615319,0.009000,-0.788227,0.000046,0.888362,4.002336,-0.039941,-177.370754,75.935144,-176.639701,-9.582054,-0.082175,-3.577362,0,0.003455764,0
1785960016.303727,0.000081,0.000824,-0.001450,-0.119629,0.025635,-0.991455,0.999348,0.007830,0.035242,-0.000626,-0.623720,0.008974,-0.781597,0.000046,0.896400,4.039734,-0.040202,-177.094072,77.159772,-176.366009,-9.635494,-0.084008,-3.373129,0,0.003460653,0
1785960016.323692,0.000348,0.000025,-0.001317,-0.120117,0.025879,-0.991455,0.999336,0.007902,0.035564,-0.000633,-0.632038,0.008976,-0.774885,0.000047,0.904621,4.076667,-0.040387,-176.749386,78.382407,-176.022077,-9.684799,-0.084911,-3.168762,0,0.003460023,0
1785960016.343832,0.000614,0.001090,-0.001183,-0.119629,0.025635,-0.991455,0.999324,0.007975,0.035892,-0.000639,-0.640198,0.008945,-0.768158,0.000049,0.912976,4.114214,-0.040481,-176.341516,79.591715,-175.617656,-9.728609,-0.086638,-2.964011,0,0.003467008,0
1785960016.363836,0.000614,0.000824,-0.000784,-0.119629,0.025879,-0.992188,0.999311,0.008048,0.036218,-0.000643,-0.648231,0.008942,-0.761392,0.000048,0.921393,4.151595,-0.040340,-175.818965,80.791947,-175.095946,-9.768177,-0.087383,-2.761021,0,0.003466444,0
1785960016.383848,0.000614,0.000824,-0.001450,-0.119629,0.025391,-0.991699,0.999299,0.008121,0.036544,-0.000650,-0.656145,0.008888,-0.754583,0.000051,0.929693,4.189000,-0.040583,-175.169910,81.984342,-174.452142,-9.803185,-0.089361,-2.557475,0,0.003466369,0
1785960016.403873,0.000614,0.000425,-0.001050,-0.118896,0.025879,-0.991211,0.999286,0.008194,0.036868,-0.000656,-0.663895,0.008901,-0.747773,0.000052,0.938130,4.226147,-0.040586,-174.266638,83.160838,-173.548376,-9.833038,-0.089525,-2.354377,0,0.003466909,0
1785960016.424882,0.000481,0.000425,-0.001050,-0.118896,0.025391,-0.991943,0.999274,0.008266,0.037192,-0.000661,-0.671554,0.008852,-0.740903,0.000052,0.946402,4.263313,-0.040590,-173.040474,84.332280,-172.326604,-9.859078,-0.091538,-2.154386,0,0.003509345,0
1785960016.443866,0.000614,0.001090,-0.000784,-0.119629,0.025879,-0.991211,0.999261,0.008340,0.037519,-0.000665,-0.679094,0.008869,-0.733998,0.000051,0.954823,4.300843,-0.040425,-171.129377,85.491755,-170.414352,-9.881649,-0.091669,-1.953100,0,0.003454778,0
1785960016.463943,0.000614,0.000425,-0.001050,-0.119385,0.025635,-0.990967,0.999248,0.008413,0.037843,-0.000671,-0.686508,0.008854,-0.727068,0.000052,0.963199,4.338002,-0.040417,-167.972467,86.634671,-167.258994,-9.899023,-0.093486,-1.752916,0,0.003460356,0
1785960016.483782,0.000481,0.000558,-0.001183,-0.119629,0.025635,-0.991943,0.999235,0.008485,0.038168,-0.000677,-0.693803,0.008840,-0.720111,0.000053,0.971484,4.375240,-0.040479,-161.679284,87.749616,-160.967177,-9.912702,-0.094601,-1.555278,0,0.003454404,0
1785960016.503721,0.000215,0.000691,-0.001183,-0.119629,0.025391,-0.991455,0.999222,0.008556,0.038493,-0.000683,-0.700978,0.008805,-0.713128,0.000053,0.979572,4.412563,-0.040538,-144.263033,88.781642,-143.553805,-9.922054,-0.095926,-1.357269,0,0.003454177,0
1785960016.523696,0.000614,0.001224,-0.000784,-0.119629,0.025391,-0.991211,0.999209,0.008628,0.038821,-0.000687,-0.708032,0.008777,-0.706126,0.000052,0.987908,4.450187,-0.040357,-78.167699,89.268131,-77.460758,-9.927404,-0.096594,-1.160761,0,0.003455544,0
1785960016.543901,0.000614,0.000158,-0.001317,-0.120117,0.025879,-0.992188,0.999195,0.008701,0.039144,-0.000693,-0.715004,0.008809,-0.699065,0.000055,0.996289,4.487190,-0.040481,-29.434675,88.522171,-28.725295,-9.929313,-0.097024,-0.966523,0,0.003466406,0
1785960016.563697,0.000614,0.001090,-0.001450,-0.119141,0.025391,-0.991699,0.999182,0.008774,0.039471,-0.000701,-0.721787,0.008779,-0.692060,0.000058,1.004617,4.524740,-0.040672,-16.909450,87.486865,-16.202665,-9.925877,-0.099221,-0.771566,0,0.003457141,0
1785960016.583698,0.001013,0.001090,-0.001183,-0.119873,0.025879,-0.991211,0.999168,0.008849,0.039798,-0.000707,-0.728499,0.008809,-0.684990,0.000062,1.013244,4.562273,-0.040699,-11.878360,86.401464,-11.169279,-9.920442,-0.099460,-0.579866,0,0.003458908,0
1785960016.603869,0.000747,0.001090,-0.001583,-0.118896,0.026123,-0.991455,0.999155,0.008924,0.040125,-0.000715,-0.735041,0.008859,-0.677965,0.000066,1.021785,4.599791,-0.040944,-9.243858,85.317768,-8.530827,-9.909562,-0.100918,-0.389128,0,0.003467447,0
1785960016.623944,0.001280,0.001357,-0.001317,-0.119385,0.025391,-0.991211,0.999141,0.009000,0.040454,-0.000722,-0.741494,0.008807,-0.670902,0.000071,1.030494,4.637492,-0.041039,-7.522537,84.232519,-6.813809,-9.896663,-0.103484,-0.201088,0,0.003469838,0
1785960016.644831,0.000614,0.001224,-0.001050,-0.119629,0.025635,-0.991943,0.999127,0.009073,0.040782,-0.000727,-0.747865,0.008799,-0.663792,0.000070,1.038870,4.675105,-0.040975,-6.376730,83.145794,-5.668180,-9.879991,-0.103627,-0.014853,0,0.003506347,0
1785960016.663936,0.000880,0.000824,-0.001583,-0.119385,0.025391,-0.991211,0.999113,0.009147,0.041108,-0.000735,-0.754080,0.008770,-0.656725,0.000074,1.047340,4.712501,-0.041218,-5.543907,82.072666,-4.837538,-9.859286,-0.104915,0.172153,0,0.003457681,0
1785960016.684288,0.000348,0.000824,-0.001317,-0.119873,0.026367,-0.991455,0.999098,0.009219,0.041433,-0.000742,-0.760214,0.008861,-0.649612,0.000073,1.055672,4.749861,-0.041291,-4.975274,80.999631,-4.260953,-9.836144,-0.104592,0.355021,0,0.003474288,0
1785960016.703948,0.000081,0.000824,-0.001183,-0.119629,0.025879,-0.991943,0.999084,0.009290,0.041759,-0.000748,-0.766206,0.008870,-0.642534,0.000070,1.063782,4.787236,-0.041287,-4.492139,79.940035,-3.776322,-9.808862,-0.107441,0.536802,0,0.003457263,0
1785960016.723808,0.000614,0.000691,-0.001050,-0.119141,0.025879,-0.991455,0.999070,0.009364,0.042084,-0.000753,-0.772059,0.008875,-0.635489,0.000069,1.072222,4.824528,-0.041202,-4.105602,78.892810,-3.388667,-9.778336,-0.108515,0.716749,0,0.003452974,0
1785960016.743806,0.000481,0.001090,-0.001317,-0.119141,0.025635,-0.991455,0.999055,0.009436,0.042411,-0.000760,-0.777800,0.008855,-0.628450,0.000070,1.080531,4.862062,-0.041263,-3.777950,77.854106,-3.062046,-9.745421,-0.109904,0.893335,0,0.003455637,0
1785960016.763719,0.000880,0.001357,-0.001317,-0.119141,0.026367,-0.991943,0.999041,0.009512,0.042740,-0.000766,-0.783424,0.008922,-0.621424,0.000073,1.089198,4.899719,-0.041305,-3.538813,76.824171,-2.817024,-9.709594,-0.109848,1.067356,0,0.003454040,0
1785960016.783697,0.000614,0.000558,-0.001050,-0.119629,0.025391,-0.990967,0.999026,0.009584,0.043064,-0.000772,-0.788972,0.008862,-0.614365,0.000072,1.097538,4.936956,-0.041214,-3.287999,75.796952,-2.570262,-9.671403,-0.112805,1.240758,0,0.003455578,0
1785960016.803992,0.000747,0.001357,-0.000385,-0.119629,0.025879,-0.990967,0.999011,0.009658,0.043393,-0.000774,-0.794415,0.008876,-0.607310,0.000068,1.106073,4.974624,-0.040718,-3.096833,74.777113,-2.376806,-9.629824,-0.112211,1.411783,0,0.003470227,0
1785960016.823696,0.001147,0.000558,-0.000917,-0.119385,0.025879,-0.991455,0.998996,0.009735,0.043717,-0.000779,-0.799731,0.008887,-0.600293,0.000070,1.114821,5.011838,-0.040531,-2.932265,73.769316,-2.210652,-9.585194,-0.113391,1.580540,0,0.003456097,0
1785960016.843713,0.000081,0.001357,-0.001317,-0.119629,0.025635,-0.991699,0.998981,0.009805,0.044046,-0.000785,-0.804946,0.008876,-0.593282,0.000070,1.122889,5.049525,-0.040564,-2.780832,72.769070,-2.059132,-9.538712,-0.114874,1.746403,0,0.003458787,0
1785960016.863833,0.000481,0.001357,-0.000917,-0.119629,0.025879,-0.991455,0.998966,0.009878,0.044374,-0.000790,-0.810059,0.008896,-0.586281,0.000068,1.131249,5.087197,-0.040358,-2.656214,71.776396,-1.931788,-9.489418,-0.115250,1.910823,0,0.003465211,0
1785960016.883863,0.000880,0.001357,-0.001317,-0.120117,0.025391,-0.992432,0.998950,0.009952,0.044703,-0.000797,-0.815083,0.008853,-0.579277,0.000072,1.139716,5.124895,-0.040385,-2.528475,70.789480,-1.806857,-9.438158,-0.116975,2.071867,0,0.003466215,0
1785960016.903960,0.000481,0.001090,-0.000917,-0.119141,0.025879,-0.991455,0.998935,0.010024,0.045030,-0.000801,-0.819968,0.008888,-0.572340,0.000071,1.148095,5.162411,-0.040169,-2.434722,69.817721,-1.709101,-9.382947,-0.116662,2.233084,0,0.003469849,0
1785960016.923872,0.000614,0.001090,-0.001050,-0.120361,0.026123,-0.991943,0.998919,0.010098,0.045357,-0.000807,-0.824798,0.008939,-0.565357,0.000072,1.156541,5.199927,-0.040025,-2.354577,68.845303,-1.623635,-9.328094,-0.117807,2.389331,0,0.003464702,0
1785960016.943717,0.000747,0.000691,-0.001050,-0.119629,0.025391,-0.991211,0.998904,0.010171,0.045682,-0.000812,-0.829496,0.008896,-0.558442,0.000073,1.164966,5.237236,-0.039888,-2.259445,67.887997,-1.530945,-9.268572,-0.120196,2.545981,0,0.003457906,0
1785960016.963708,0.000481,0.000824,-0.001183,-0.119873,0.024902,-0.991211,0.998888,0.010243,0.046008,-0.000818,-0.834102,0.008818,-0.551540,0.000073,1.173142,5.274641,-0.039830,-2.163844,66.937704,-1.440715,-9.208402,-0.120859,2.698434,0,0.003459042,0
1785960016.983749,0.000481,0.000957,-0.001050,-0.118652,0.025635,-0.991699,0.998872,0.010315,0.046334,-0.000824,-0.838559,0.008851,-0.544739,0.000073,1.181494,5.312084,-0.039673,-2.103424,66.006254,-1.376262,-9.144702,-0.119615,2.848277,0,0.003462060,0
1785960017.003714,0.000481,0.000957,-0.001050,-0.118896,0.026123,-0.991455,0.998856,0.010389,0.046660,-0.000829,-0.842930,0.008935,-0.537949,0.000073,1.189920,5.349511,-0.039503,-2.059483,65.081138,-1.324152,-9.081285,-0.120441,2.994796,0,0.003461071,0
1785960017.023711,0.000614,0.000691,-0.001450,-0.119629,0.025635,-0.991943,0.998840,0.010462,0.046985,-0.000836,-0.847232,0.008937,-0.531147,0.000077,1.198293,5.386814,-0.039572,-2.001877,64.159240,-1.265288,-9.016422,-0.123111,3.138556,0,0.003461674,0
1785960017.043756,0.000481,0.000957,-0.001183,-0.119141,0.025635,-0.991699,0.998824,0.010534,0.047312,-0.000842,-0.851422,0.008945,-0.524405,0.000078,1.206622,5.424261,-0.039476,-1.949691,63.249934,-1.211184,-8.948305,-0.123900,3.281423,0,0.003464195,0
1785960017.063715,0.000614,0.000957,-0.001050,-0.119141,0.025391,-0.992188,0.998808,0.010607,0.047638,-0.000848,-0.855515,0.008924,-0.517701,0.000078,1.214996,5.461715,-0.039303,-1.895548,62.350179,-1.157410,-8.879339,-0.124962,3.420567,0,0.003462404,0
1785960017.083705,0.000614,0.001090,-0.001050,-0.119629,0.025391,-0.991455,0.998792,0.010680,0.047965,-0.000853,-0.859536,0.008916,-0.510997,0.000079,1.223353,5.499248,-0.039124,-1.847777,61.454696,-1.108886,-8.809426,-0.125321,3.558358,0,0.003462438,0
1785960017.103682,0.001013,0.000558,-0.001050,-0.119629,0.025635,-0.991455,0.998775,0.010755,0.048290,-0.000859,-0.863468,0.008941,-0.504324,0.000081,1.231979,5.536467,-0.038942,-1.810227,60.567353,-1.067932,-8.737169,-0.125604,3.693758,0,0.003461850,0
1785960017.123737,0.000880,0.000957,-0.001450,-0.119141,0.025635,-0.991455,0.998758,0.010829,0.048616,-0.000866,-0.867293,0.008966,-0.497718,0.000086,1.240527,5.573916,-0.038978,-1.775687,59.692821,-1.030224,-8.663089,-0.126809,3.826613,0,0.003464741,0
1785960017.143718,0.000481,0.000824,-0.001450,-0.119629,0.026123,-0.991943,0.998742,0.010902,0.048941,-0.000873,-0.871044,0.009044,-0.491122,0.000088,1.248910,5.611273,-0.039004,-1.753566,58.823426,-1.000179,-8.588995,-0.127474,3.956019,0,0.003463791,0
1785960017.163834,0.000880,0.001090,-0.001050,-0.119629,0.025879,-0.991699,0.998725,0.010977,0.049268,-0.000879,-0.874709,0.009071,-0.484563,0.000089,1.257505,5.648787,-0.038796,-1.723481,57.962578,-0.966302,-8.512936,-0.129612,4.084155,0,0.003468793,0
1785960017.183720,0.000481,0.000425,-0.000784,-0.119385,0.025879,-0.991455,0.998708,0.011050,0.049592,-0.000883,-0.878283,0.009097,-0.478055,0.000086,1.265896,5.685913,-0.038436,-1.695092,57.111987,-0.933768,-8.435381,-0.130714,4.210063,0,0.003462799,0
1785960017.203729,0.000481,0.001490,-0.001183,-0.119629,0.025635,-0.992188,0.998691,0.011122,0.049921,-0.000889,-0.881772,0.009092,-0.471589,0.000087,1.274218,5.723665,-0.038292,-1.663089,56.270210,-0.900628,-8.357568,-0.132080,4.332056,0,0.003463508,0
1785960017.223716,0.000880,0.000691,-0.001317,-0.119141,0.025635,-0.991211,0.998674,0.011197,0.050246,-0.000896,-0.885170,0.009095,-0.465179,0.000090,1.282778,5.760956,-0.038227,-1.634887,55.439001,-0.870752,-8.277849,-0.132577,4.453652,0,0.003463097,0
1785960017.243731,0.000614,0.000558,-0.001050,-0.119385,0.025879,-0.991943,0.998657,0.011270,0.050570,-0.000901,-0.888493,0.009130,-0.458800,0.000090,1.291233,5.798160,-0.038002,-1.613585,54.614928,-0.844755,-8.198201,-0.132995,4.570753,0,0.003463953,0
1785960017.263830,0.001013,0.000824,-0.000917,-0.118896,0.026367,-0.991211,0.998639,0.011347,0.050895,-0.000906,-0.891724,0.009216,-0.452485,0.000091,1.300023,5.835494,-0.037682,-1.602738,53.802111,-0.824858,-8.116871,-0.133625,4.687072,0,0.003468235,0
1785960017.283798,0.000747,0.000025,-0.001183,-0.119385,0.026367,-0.991943,0.998622,0.011421,0.051217,-0.000912,-0.894892,0.009280,-0.446187,0.000092,1.308628,5.872376,-0.037522,-1.589094,52.994319,-0.804067,-8.035877,-0.135776,4.799339,0,0.003465857,0
1785960017.304968,0.000348,0.001090,-0.001183,-0.119385,0.026367,-0.990723,0.998604,0.011494,0.051543,-0.000918,-0.897999,0.009336,-0.439899,0.000093,1.317007,5.909868,-0.037343,-1.574948,52.190688,-0.783314,-7.953545,-0.137528,4.911409,0,0.003515451,0
1785960017.324097,0.000081,0.000957,-0.001183,-0.119629,0.025879,-0.991211,0.998586,0.011565,0.051869,-0.000924,-0.901017,0.009323,-0.433683,0.000092,1.325147,5.947302,-0.037169,-1.550344,51.399052,-0.757820,-7.870177,-0.139576,5.020254,0,0.003465536,0
1785960017.344133,0.000348,0.000957,-0.001450,-0.119141,0.024902,-0.991211,0.998569,0.011636,0.052196,-0.000931,-0.903948,0.009206,-0.427544,0.000094,1.333284,5.984770,-0.037157,-1.510472,50.619768,-0.726309,-7.785866,-0.140867,5.126789,0,0.003466682,0
1785960017.364123,0.000215,0.000824,-0.000784,-0.119385,0.025635,-0.991455,0.998551,0.011707,0.052521,-0.000935,-0.906811,0.009218,-0.421436,0.000091,1.341494,6.022128,-0.036747,-1.492377,49.846941,-0.705002,-7.702148,-0.138522,5.230349,0,0.003465627,0
1785960017.383796,0.000614,0.000691,-0.001183,-0.118652,0.025635,-0.992188,0.998533,0.011781,0.052846,-0.000941,-0.909578,0.009230,-0.415431,0.000093,1.349935,6.059411,-0.036560,-1.475849,49.089379,-0.685664,-7.616758,-0.139212,5.331366,0,0.003451352,0
1785960017.403782,0.000880,0.001224,-0.001050,-0.118896,0.025391,-0.991943,0.998514,0.011855,0.053174,-0.000947,-0.912280,0.009214,-0.409462,0.000094,1.358491,6.097006,-0.036289,-1.455843,48.338697,-0.665213,-7.532780,-0.140116,5.430129,0,0.003453875,0
1785960017.423754,0.000348,0.000691,-0.001050,-0.119141,0.025635,-0.991455,0.998496,0.011927,0.053499,-0.000952,-0.914925,0.009243,-0.403519,0.000094,1.366773,6.134288,-0.036017,-1.443549,47.593356,-0.648366,-7.448153,-0.140149,5.527302,0,0.003455202,0
1785960017.443890,0.000481,0.001224,-0.000917,-0.120117,0.025391,-0.991699,0.998478,0.011999,0.053826,-0.000957,-0.917524,0.009238,-0.397574,0.000093,1.375069,6.171889,-0.035663,-1.426550,46.849922,-0.629724,-7.363756,-0.141343,5.621771,0,0.003463201,0
1785960017.464100,0.001147,0.000824,-0.001317,-0.119629,0.025391,-0.991211,0.998459,0.012074,0.054152,-0.000964,-0.920050,0.009240,-0.391692,0.000098,1.383739,6.209262,-0.035537,-1.411843,46.116438,-0.613260,-7.276766,-0.141673,5.715769,0,0.003472376,0
1785960017.483746,0.000614,0.000691,-0.001183,-0.119873,0.025635,-0.992188,0.998441,0.012147,0.054477,-0.000970,-0.922509,0.009277,-0.385864,0.000100,1.392143,6.246550,-0.035328,-1.402880,45.391629,-0.599135,-7.190518,-0.141998,5.805898,0,0.003455224,0
1785960017.503769,0.000481,0.000824,-0.001183,-0.119385,0.025146,-0.991455,0.998422,0.012219,0.054802,-0.000976,-0.924896,0.009255,-0.380108,0.000101,1.400413,6.283927,-0.035118,-1.385753,44.677787,-0.581968,-7.103462,-0.143616,5.895509,0,0.003458389,0
1785960017.523894,0.000747,0.000824,-0.001583,-0.119385,0.025391,-0.991455,0.998403,0.012292,0.055128,-0.000984,-0.927221,0.009275,-0.374399,0.000106,1.408848,6.321301,-0.035128,-1.375757,43.971369,-0.568619,-7.017092,-0.143420,5.982011,0,0.003465106,0
1785960017.543920,-0.000052,0.000558,-0.001183,-0.119629,0.025391,-0.991455,0.998384,0.012362,0.055452,-0.000990,-0.929492,0.009299,-0.368725,0.000105,1.416844,6.358518,-0.034908,-1.366570,43.271115,-0.555057,-6.930774,-0.144286,6.066561,0,0.003465991,0
1785960017.563811,0.000747,0.000691,-0.001183,-0.119629,0.025391,-0.991699,0.998365,0.012435,0.055777,-0.000996,-0.931700,0.009317,-0.363109,0.000107,1.425299,6.395810,-0.034680,-1.357130,42.579717,-0.542049,-6.844000,-0.145011,6.149021,0,0.003460870,0
1785960017.583802,0.001013,0.000691,-0.000917,-0.119629,0.025391,-0.991211,0.998346,0.012510,0.056102,-0.001001,-0.933850,0.009336,-0.357542,0.000108,1.433924,6.433099,-0.034294,-1.348188,41.895942,-0.529343,-6.757321,-0.145667,6.230138,0,0.003461303,0
1785960017.604039,0.000747,0.000824,-0.001716,-0.119873,0.026367,-0.991699,0.998327,0.012585,0.056427,-0.001010,-0.935948,0.009473,-0.352010,0.000114,1.442489,6.470443,-0.034344,-1.356973,41.217853,-0.524295,-6.670907,-0.145557,6.308334,0,0.003472096,0
1785960017.624192,0.000481,0.000691,-0.001450,-0.119385,0.025635,-0.990723,0.998308,0.012657,0.056752,-0.001017,-0.937984,0.009491,-0.346548,0.000117,1.450824,6.507728,-0.034249,-1.348885,40.549922,-0.512619,-6.583524,-0.149232,6.386296,0,0.003476631,0
1785960017.643792,0.000614,0.000824,-0.000917,-0.119385,0.025635,-0.992188,0.998288,0.012730,0.057077,-0.001022,-0.939957,0.009505,-0.341162,0.000115,1.459271,6.545081,-0.033838,-1.340405,39.892717,-0.500542,-6.497084,-0.149861,6.459675,0,0.003456508,0
1785960017.663794,0.000481,0.000957,-0.000917,-0.119873,0.025879,-0.991943,0.998268,0.012803,0.057403,-0.001026,-0.941884,0.009552,-0.335802,0.000114,1.467664,6.582504,-0.033418,-1.336942,39.240054,-0.490469,-6.411677,-0.150231,6.532568,0,0.003458464,0
1785960017.683708,0.000614,0.000558,-0.001050,-0.119629,0.025391,-0.991211,0.998249,0.012876,0.057727,-0.001032,-0.943757,0.009536,-0.330502,0.000114,1.476058,6.619715,-0.033083,-1.325102,38.596053,-0.477869,-6.325229,-0.151919,6.604523,0,0.003456195,0
1785960017.703736,0.000880,0.000691,-0.001450,-0.119385,0.025146,-0.991699,0.998229,0.012950,0.058052,-0.001039,-0.945573,0.009500,-0.325271,0.000119,1.484552,6.657015,-0.032974,-1.311376,37.961545,-0.465458,-6.239215,-0.152202,6.673307,0,0.003459324,0
1785960017.724595,0.001013,0.001490,-0.000518,-0.119873,0.025879,-0.991455,0.998209,0.013025,0.058381,-0.001042,-0.947353,0.009569,-0.320049,0.000116,1.493281,6.694736,-0.032299,-1.311842,37.329355,-0.457152,-6.154560,-0.151033,6.740773,0,0.003497165,0
1785960017.743942,0.000348,0.000558,-0.001317,-0.119141,0.025391,-0.991943,0.998189,0.013097,0.058705,-0.001049,-0.949065,0.009571,-0.314934,0.000117,1.501526,6.731946,-0.032099,-1.303758,36.711280,-0.446768,-6.067963,-0.153294,6.806497,0,0.003461138,0
1785960017.764361,0.000747,0.000425,-0.001317,-0.119873,0.025879,-0.991699,0.998169,0.013171,0.059028,-0.001056,-0.950746,0.009635,-0.309821,0.000121,1.510050,6.769068,-0.031890,-1.304465,36.094556,-0.439605,-5.984187,-0.153094,6.870482,0,0.003479744,0
1785960017.784557,0.000348,0.000957,-0.000917,-0.119873,0.026123,-0.991943,0.998149,0.013243,0.059354,-0.001060,-0.952378,0.009717,-0.304765,0.000119,1.518412,6.806480,-0.031433,-1.307612,35.485770,-0.432749,-5.899285,-0.154387,6.932822,0,0.003484278,0
1785960017.803965,0.001147,0.000824,-0.001317,-0.119385,0.025635,-0.991699,0.998128,0.013319,0.059679,-0.001067,-0.953952,0.009719,-0.299803,0.000123,1.527147,6.843835,-0.031209,-1.300549,34.889340,-0.423490,-5.814219,-0.156618,6.994022,0,0.003454034,0
1785960017.823841,0.000614,0.001090,-0.001450,-0.119385,0.025391,-0.991211,0.998108,0.013392,0.060006,-0.001075,-0.955480,0.009704,-0.294897,0.000127,1.535534,6.881351,-0.031056,-1.291454,34.300521,-0.413783,-5.730806,-0.157309,7.053331,0,0.003451201,0
1785960017.843886,0.000348,0.000558,-0.001050,-0.119629,0.025879,-0.992188,0.998087,0.013464,0.060330,-0.001080,-0.956968,0.009758,-0.290028,0.000126,1.543860,6.918542,-0.030669,-1.291593,33.717095,-0.406546,-5.647979,-0.156830,7.109668,0,0.003456302,0
1785960017.864233,0.000481,0.000824,-0.000917,-0.119385,0.025635,-0.991455,0.998066,0.013537,0.060655,-0.001085,-0.958414,0.009775,-0.285213,0.000125,1.552246,6.955889,-0.030198,-1.287057,33.141015,-0.397972,-5.564976,-0.158315,7.166228,0,0.003473006,0
1785960017.884228,0.000215,0.001090,-0.001317,-0.119629,0.025146,-0.990723,0.998046,0.013607,0.060982,-0.001091,-0.959822,0.009739,-0.280441,0.000127,1.560372,6.993411,-0.029958,-1.276031,32.570957,-0.387992,-5.482943,-0.159462,7.221272,0,0.003470628,0
1785960017.903745,0.001280,0.001090,-0.000917,-0.119385,0.026855,-0.991699,0.998024,0.013685,0.061308,-0.001096,-0.961180,0.009919,-0.275745,0.000128,1.569397,7.030869,-0.029450,-1.293258,32.010757,-0.386253,-5.400708,-0.157135,7.273279,0,0.003448419,0
1785960017.923735,0.000880,0.000691,-0.001050,-0.119385,0.025635,-0.991943,0.998003,0.013760,0.061633,-0.001102,-0.962500,0.009904,-0.271102,0.000129,1.578006,7.068140,-0.029041,-1.285448,31.457710,-0.377438,-5.319565,-0.162072,7.324245,0,0.003451862,0
1785960017.943727,0.000614,0.001224,-0.001583,-0.119873,0.025146,-0.991455,0.997982,0.013832,0.061960,-0.001110,-0.963787,0.009846,-0.266493,0.000135,1.586340,7.105743,-0.028937,-1.272369,30.909346,-0.367811,-5.239606,-0.162640,7.374498,0,0.003454525,0
1785960017.963871,0.000747,0.000691,-0.001317,-0.119873,0.025635,-0.991943,0.997961,0.013906,0.062285,-0.001117,-0.965037,0.009871,-0.261926,0.000138,1.594840,7.143020,-0.028673,-1.270012,30.366830,-0.361043,-5.159197,-0.161269,7.422709,0,0.003463020,0
1785960017.983679,0.000481,0.000558,-0.001317,-0.119629,0.025391,-0.991699,0.997940,0.013978,0.062609,-0.001123,-0.966248,0.009868,-0.257425,0.000140,1.603161,7.180227,-0.028409,-1.264427,29.832798,-0.353441,-5.079008,-0.162258,7.470300,0,0.003455122,0
1785960018.003741,0.000348,0.001224,-0.001317,-0.118652,0.025635,-0.991943,0.997918,0.014050,0.062936,-0.001130,-0.967410,0.009906,-0.253023,0.000142,1.611475,7.217801,-0.028121,-1.264144,29.311025,-0.347430,-4.999041,-0.162222,7.515853,0,0.003459940,0
1785960018.023716,0.000614,0.000558,-0.001050,-0.119385,0.025146,-0.992188,0.997897,0.014122,0.063260,-0.001136,-0.968547,0.009875,-0.248636,0.000142,1.619866,7.255009,-0.027696,-1.255388,28.791816,-0.339067,-4.921963,-0.163567,7.559755,0,0.003459926,0
1785960018.043796,0.000614,0.000558,-0.000917,-0.119385,0.025391,-0.991455,0.997875,0.014195,0.063584,-0.001140,-0.969651,0.009894,-0.244294,0.000141,1.628303,7.292206,-0.027184,-1.252966,28.278412,-0.332346,-4.844253,-0.162947,7.603674,0,0.003464360,0
1785960018.063693,0.000880,0.000558,-0.001183,-0.119385,0.025635,-0.991455,0.997853,0.014270,0.063908,-0.001147,-0.970721,0.009943,-0.240004,0.000144,1.636910,7.329399,-0.026816,-1.254613,27.771797,-0.327112,-4.767026,-0.163235,7.645666,0,0.003459917,0
1785960018.083714,0.000481,0.000824,-0.001450,-0.119629,0.026123,-0.991455,0.997831,0.014343,0.064233,-0.001154,-0.971760,0.010047,-0.235755,0.000147,1.645334,7.366735,-0.026584,-1.263284,27.270549,-0.323827,-4.690746,-0.163978,7.686381,0,0.003461849,0
1785960018.104266,0.000614,0.000025,-0.000917,-0.119873,0.025635,-0.991455,0.997809,0.014416,0.064554,-0.001159,-0.972776,0.010065,-0.231529,0.000147,1.653795,7.403621,-0.026063,-1.261121,26.772522,-0.317402,-4.614744,-0.166579,7.726073,0,0.003485936,0
1785960018.123784,0.000747,0.000691,-0.000784,-0.119873,0.026123,-0.991943,0.997787,0.014491,0.064878,-0.001163,-0.973754,0.010142,-0.227375,0.000145,1.662415,7.440870,-0.025438,-1.266531,26.283430,-0.312752,-4.538896,-0.166580,7.764266,0,0.003459977,0
1785960018.143758,0.000481,0.000957,-0.001050,-0.119385,0.025635,-0.991211,0.997765,0.014563,0.065204,-0.001168,-0.974699,0.010149,-0.223292,0.000145,1.670810,7.478288,-0.024964,-1.263341,25.803197,-0.306472,-4.463533,-0.168788,7.802348,0,0.003459878,0
1785960018.163737,0.000880,0.001090,-0.000784,-0.119141,0.025635,-0.991699,0.997743,0.014638,0.065530,-0.001172,-0.975611,0.010157,-0.219271,0.000144,1.679463,7.515775,-0.024328,-1.260459,25.330813,-0.300219,-4.389439,-0.169000,7.837954,0,0.003460057,0
1785960018.183771,0.000348,0.000691,-0.001317,-0.119629,0.025391,-0.991455,0.997720,0.014709,0.065855,-0.001179,-0.976501,0.010145,-0.215275,0.000147,1.687722,7.553053,-0.024007,-1.255266,24.861729,-0.293990,-4.316895,-0.169705,7.873137,0,0.003462475,0
1785960018.203858,0.000747,0.000558,-0.000917,-0.119385,0.025391,-0.991943,0.997698,0.014783,0.066179,-0.001184,-0.977361,0.010140,-0.211337,0.000147,1.696248,7.590246,-0.023452,-1.251019,24.399831,-0.287763,-4.243897,-0.169541,7.906736,0,0.003466586,0
1785960018.223755,0.000747,0.000558,-0.001183,-0.119629,0.025635,-0.991699,0.997675,0.014857,0.066502,-0.001190,-0.978195,0.010174,-0.207438,0.000150,1.704782,7.627436,-0.023041,-1.251859,23.942968,-0.283004,-4.172251,-0.169377,7.939948,0,0.003461597,0
1785960018.243867,0.000747,0.000957,-0.001317,-0.118896,0.025635,-0.991211,0.997652,0.014931,0.066828,-0.001197,-0.978998,0.010209,-0.203615,0.000154,1.713332,7.664853,-0.022691,-1.252810,23.495358,-0.278535,-4.100226,-0.170216,7.972424,0,0.003466972,0
1785960018.263743,0.000747,0.000558,-0.001450,-0.119873,0.025635,-0.991211,0.997629,0.015005,0.067152,-0.001204,-0.979783,0.010239,-0.199802,0.000158,1.721841,7.702049,-0.022424,-1.253303,23.049247,-0.274092,-4.030965,-0.171047,8.003275,0,0.003460975,0
1785960018.283905,0.000481,0.000824,-0.001050,-0.119385,0.025879,-0.991699,0.997606,0.015077,0.067477,-0.001210,-0.980539,0.010298,-0.196056,0.000159,1.730281,7.739379,-0.021909,-1.257362,22.611329,-0.269977,-3.960362,-0.171555,8.032934,0,0.003468656,0
1785960018.303763,0.000614,0.000957,-0.001317,-0.119141,0.025391,-0.991699,0.997583,0.015150,0.067803,-0.001216,-0.981268,0.010285,-0.192373,0.000162,1.738716,7.776803,-0.021548,-1.252948,22.181087,-0.264572,-3.891034,-0.173316,8.061998,0,0.003461484,0
1785960018.323789,0.000747,0.000558,-0.001450,-0.119385,0.025635,-0.991455,0.997560,0.015224,0.068126,-0.001224,-0.981977,0.010314,-0.188721,0.000167,1.747244,7.813994,-0.021263,-1.253604,21.754774,-0.260398,-3.823099,-0.172971,8.090349,0,0.003463240,0
1785960018.343808,0.000215,0.000558,-0.001317,-0.120117,0.025879,-0.991455,0.997537,0.015295,0.068450,-0.001231,-0.982667,0.010374,-0.185087,0.000169,1.755490,7.851179,-0.020893,-1.258045,21.330953,-0.256692,-3.756140,-0.173513,8.117643,0,0.003464286,0
1785960018.363723,0.000747,0.001224,-0.001317,-0.120117,0.025879,-0.991943,0.997513,0.015369,0.068777,-0.001237,-0.983334,0.010418,-0.181511,0.000173,1.764044,7.888746,-0.020506,-1.260658,20.914115,-0.252811,-3.688765,-0.174706,8.143735,0,0.003460596,0
1785960018.383783,0.000880,0.000691,-0.001183,-0.119141,0.026123,-0.991455,0.997489,0.015445,0.069101,-0.001244,-0.983973,0.010488,-0.178007,0.000175,1.772749,7.925990,-0.020037,-1.266520,20.505905,-0.249485,-3.621119,-0.175408,8.169966,0,0.003464033,0
1785960018.405514,0.000481,0.000691,-0.001317,-0.119141,0.026367,-0.991211,0.997466,0.015518,0.069425,-0.001250,-0.984598,0.010579,-0.174514,0.000179,1.781251,7.963229,-0.019634,-1.274942,20.099352,-0.246775,-3.555753,-0.176728,8.194895,0,0.003538161,0
1785960018.423745,0.001013,0.000558,-0.001583,-0.119629,0.025635,-0.991699,0.997442,0.015593,0.069749,-0.001258,-0.985198,0.010553,-0.171094,0.000184,1.789920,8.000422,-0.019399,-1.269419,19.701422,-0.241779,-3.490913,-0.179273,8.218543,0,0.003444194,0
1785960018.443825,0.000880,0.000957,-0.001317,-0.119385,0.025146,-0.991943,0.997418,0.015667,0.070075,-0.001265,-0.985777,0.010482,-0.167729,0.000187,1.798477,8.037851,-0.019005,-1.258498,19.310287,-0.235838,-3.426689,-0.179384,8.241475,0,0.003452495,0
1785960018.463828,0.000614,0.000957,-0.001050,-0.119629,0.025635,-0.991699,0.997394,0.015740,0.070400,-0.001271,-0.986338,0.010501,-0.164396,0.000187,1.806964,8.075262,-0.018443,-1.258542,18.923001,-0.231498,-3.363809,-0.177657,8.264113,0,0.003455496,0
1785960018.483741,0.000081,0.000824,-0.001450,-0.119873,0.025391,-0.991943,0.997370,0.015810,0.070725,-0.001278,-0.986882,0.010495,-0.161100,0.000190,1.815074,8.112612,-0.018115,-1.255601,18.540212,-0.227068,-3.301373,-0.178508,8.285587,0,0.003453879,0
1785960018.503719,0.000081,0.000691,-0.000917,-0.119385,0.025146,-0.991455,0.997346,0.015880,0.071050,-0.001283,-0.987406,0.010469,-0.157861,0.000189,1.823209,8.149880,-0.017479,-1.250332,18.164232,-0.221793,-3.238796,-0.178702,8.307137,0,0.003455457,0
1785960018.523727,0.000348,0.000957,-0.001450,-0.119385,0.025635,-0.991455,0.997321,0.015952,0.071375,-0.001290,-0.987911,0.010517,-0.154664,0.000193,1.831521,8.187296,-0.017131,-1.254094,17.793380,-0.218685,-3.177743,-0.177783,8.327405,0,0.003457916,0
1785960018.543808,0.001013,0.000691,-0.001317,-0.119873,0.025635,-0.991699,0.997297,0.016027,0.071700,-0.001297,-0.988402,0.010551,-0.151491,0.000196,1.840211,8.224559,-0.016707,-1.256249,17.425389,-0.215304,-3.117788,-0.178689,8.346762,0,0.003462910,0
1785960018.564270,0.000348,0.000558,-0.001450,-0.119629,0.025879,-0.992188,0.997272,0.016099,0.072023,-0.001304,-0.988876,0.010617,-0.148360,0.000201,1.848551,8.261738,-0.016351,-1.262141,17.062519,-0.212585,-3.057466,-0.179345,8.365328,0,0.003482906,0
1785960018.583816,0.000614,0.001090,-0.000917,-0.119385,0.025879,-0.991455,0.997247,0.016173,0.072349,-0.001309,-0.989331,0.010670,-0.145291,0.000200,1.857098,8.299212,-0.015671,-1.266542,16.706974,-0.209102,-2.997981,-0.180632,8.384425,0,0.003458921,0
1785960018.603899,0.000880,0.000824,-0.001183,-0.119629,0.025391,-0.991455,0.997223,0.016247,0.072674,-0.001315,-0.989773,0.010651,-0.142253,0.000202,1.865701,8.336553,-0.015154,-1.262530,16.355198,-0.204808,-2.939929,-0.182193,8.402102,0,0.003463754,0
1785960018.623862,0.000481,0.001490,-0.001317,-0.119873,0.025879,-0.991943,0.997197,0.016320,0.073002,-0.001322,-0.990199,0.010707,-0.139255,0.000205,1.874128,8.374264,-0.014688,-1.267408,16.008259,-0.201930,-2.882556,-0.181506,8.418725,0,0.003462247,0
1785960018.644218,0.000614,0.000691,-0.001317,-0.119141,0.025391,-0.990967,0.997172,0.016393,0.073327,-0.001329,-0.990609,0.010695,-0.136306,0.000208,1.882585,8.411527,-0.014238,-1.264361,15.667052,-0.198040,-2.824628,-0.183134,8.436279,0,0.003477884,0
1785960018.664127,0.000880,0.000691,-0.000784,-0.119141,0.026123,-0.991211,0.997147,0.016468,0.073651,-0.001333,-0.991004,0.010782,-0.133397,0.000207,1.891340,8.448758,-0.013460,-1.273003,15.330719,-0.195227,-2.768426,-0.182173,8.451988,0,0.003470606,0
1785960018.685118,0.000614,0.000691,-0.001050,-0.119873,0.026123,-0.991455,0.997122,0.016542,0.073975,-0.001338,-0.991390,0.010851,-0.130493,0.000208,1.899900,8.485998,-0.012833,-1.279490,14.994965,-0.192420,-2.713672,-0.183999,8.467094,0,0.003511380,0
1785960018.703764,0.000614,0.001224,-0.001183,-0.119141,0.025391,-0.990967,0.997097,0.016615,0.074301,-0.001344,-0.991756,0.010817,-0.127681,0.000209,1.908375,8.523562,-0.012279,-1.273997,14.670055,-0.188177,-2.657533,-0.186150,8.482571,0,0.003441898,0
1785960018.723805,0.000614,0.000291,-0.001317,-0.119141,0.025879,-0.991699,0.997071,0.016688,0.074624,-0.001351,-0.992110,0.010858,-0.124897,0.000213,1.916902,8.560581,-0.011804,-1.277459,14.348521,-0.185373,-2.603595,-0.185071,8.496140,0,0.003449100,0
1785960018.743862,0.000481,0.000291,-0.001450,-0.120361,0.025879,-0.991943,0.997046,0.016761,0.074946,-0.001359,-0.992456,0.010892,-0.122115,0.000217,1.925308,8.597608,-0.011407,-1.280081,14.027190,-0.182572,-2.551519,-0.185982,8.509672,0,0.003455241,0
1785960018.764256,0.000614,0.000691,-0.001183,-0.119385,0.025391,-0.991455,0.997020,0.016834,0.075270,-0.001365,-0.992787,0.010864,-0.119397,0.000220,1.933779,8.634867,-0.010847,-1.275362,13.713459,-0.178708,-2.497283,-0.187166,8.523613,0,0.003474237,0
1785960018.783719,0.000880,0.000957,-0.000917,-0.119629,0.025879,-0.991455,0.996994,0.016909,0.075595,-0.001370,-0.993105,0.010909,-0.116718,0.000219,1.942485,8.672260,-0.010114,-1.279341,13.404405,-0.175644,-2.445423,-0.186121,8.536496,0,0.003448818,0
1785960018.803842,0.000215,0.001090,-0.000917,-0.119141,0.026123,-0.991455,0.996968,0.016981,0.075921,-0.001374,-0.993410,0.010984,-0.114089,0.000219,1.950860,8.709719,-0.009365,-1.286801,13.101121,-0.172995,-2.393526,-0.186938,8.548874,0,0.003457807,0
1785960018.824706,0.000880,0.000824,-0.001050,-0.119141,0.025635,-0.991455,0.996942,0.017055,0.076246,-0.001380,-0.993706,0.010977,-0.111484,0.000221,1.959539,8.747042,-0.008703,-1.284762,12.800623,-0.169563,-2.342936,-0.188808,8.560762,0,0.003496291,0
1785960018.843811,0.000614,0.001090,-0.000917,-0.119385,0.025635,-0.991455,0.996916,0.017129,0.076572,-0.001384,-0.993989,0.010980,-0.108924,0.000220,1.968074,8.784516,-0.007954,-1.283942,12.505571,-0.166071,-2.293074,-0.188779,8.572289,0,0.003450119,0
1785960018.864022,0.000348,0.000957,-0.001050,-0.119873,0.025635,-0.991211,0.996890,0.017201,0.076897,-0.001390,-0.994265,0.010990,-0.106381,0.000221,1.976430,8.821918,-0.007281,-1.284009,12.212486,-0.162890,-2.244257,-0.188942,8.583602,0,0.003462564,0
1785960018.883815,0.000747,0.001357,-0.001183,-0.119385,0.026123,-0.991455,0.996863,0.017275,0.077224,-0.001396,-0.994527,0.011063,-0.103893,0.000224,1.985085,8.859534,-0.006660,-1.291395,11.925799,-0.160731,-2.194821,-0.188635,8.594083,0,0.003454114,0
1785960018.903910,0.000348,0.000691,-0.001050,-0.119141,0.025635,-0.990723,0.996837,0.017347,0.077548,-0.001401,-0.994780,0.011064,-0.101438,0.000226,1.993465,8.896778,-0.005978,-1.290503,11.642970,-0.157557,-2.146454,-0.190659,8.605074,0,0.003460607,0
1785960018.925407,0.000348,0.000691,-0.000917,-0.119873,0.025391,-0.991943,0.996810,0.017419,0.077872,-0.001406,-0.995028,0.011035,-0.098983,0.000226,2.001806,8.934031,-0.005221,-1.286081,11.360176,-0.153963,-2.099791,-0.190968,8.613743,0,0.003525569,0
1785960018.943833,0.000614,0.000558,-0.001050,-0.119141,0.025391,-0.993164,0.996784,0.017492,0.078196,-0.001411,-0.995261,0.011017,-0.096609,0.000227,2.010309,8.971206,-0.004536,-1.283023,11.086859,-0.150658,-2.051569,-0.190405,8.622202,0,0.003443082,0
1785960018.964701,0.001147,0.001090,-0.001050,-0.119873,0.025391,-0.991455,0.996757,0.017567,0.078522,-0.001417,-0.995489,0.011010,-0.094236,0.000230,2.019099,9.008689,-0.003837,-1.281248,10.813758,-0.147712,-2.006519,-0.189978,8.633008,0,0.003485285,0
1785960018.983908,0.000481,0.000558,-0.001050,-0.119141,0.025879,-0.991455,0.996730,0.017640,0.078845,-0.001422,-0.995705,0.011079,-0.091921,0.000231,2.027593,9.045848,-0.003130,-1.288362,10.547312,-0.145499,-1.959763,-0.189527,8.641915,0,0.003446235,0
1785960019.003909,0.000747,0.000425,-0.001317,-0.118896,0.025391,-0.991699,0.996703,0.017714,0.079168,-0.001429,-0.995912,0.011069,-0.089645,0.000235,2.036160,9.082949,-0.002584,-1.286482,10.285464,-0.142873,-1.914666,-0.191357,8.650102,0,0.003450681,0
1785960019.024019,0.000747,0.000291,-0.001450,-0.119629,0.025879,-0.991699,0.996676,0.017788,0.079490,-0.001437,-0.996113,0.011129,-0.087378,0.000241,2.044758,9.119966,-0.002105,-1.292641,10.024579,-0.141119,-1.871279,-0.190737,8.658218,0,0.003458686,0
1785960019.043944,0.000614,0.000558,-0.000917,-0.118652,0.025879,-0.991455,0.996649,0.017862,0.079813,-0.001442,-0.996304,0.011181,-0.085170,0.000242,2.053360,9.157118,-0.001302,-1.297807,9.770660,-0.138715,-1.826388,-0.191959,8.666303,0,0.003456793,0
1785960019.063829,0.000747,0.000425,-0.001317,-0.118896,0.025635,-0.991211,0.996622,0.017936,0.080135,-0.001449,-0.996488,0.011192,-0.082987,0.000246,2.061964,9.194211,-0.000734,-1.298337,9.519668,-0.136396,-1.783776,-0.193230,8.674004,0,0.003453707,0
1785960019.083952,0.000081,0.000957,-0.001317,-0.119385,0.026123,-0.991699,0.996594,0.018007,0.080461,-0.001455,-0.996664,0.011270,-0.080827,0.000250,2.070238,9.231596,-0.000141,-1.306621,9.271241,-0.134690,-1.742002,-0.193121,8.680691,0,0.003461493,0
1785960019.103835,0.000614,0.000824,-0.001450,-0.119629,0.025879,-0.991699,0.996566,0.018080,0.080785,-0.001462,-0.996835,0.011296,-0.078692,0.000255,2.078768,9.268916,0.000371,-1.308919,9.025844,-0.132684,-1.700254,-0.194823,8.687610,0,0.003457168,0
1785960019.123799,0.000348,0.001224,-0.001050,-0.119629,0.025879,-0.990967,0.996539,0.018152,0.081112,-0.001468,-0.996998,0.011324,-0.076590,0.000257,2.087185,9.306456,0.001129,-1.311453,8.784236,-0.130272,-1.658852,-0.195401,8.694999,0,0.003457325,0
1785960019.144097,0.001147,0.000691,-0.001050,-0.119629,0.025391,-0.990967,0.996511,0.018228,0.081436,-0.001473,-0.997156,0.011281,-0.074511,0.000259,2.095997,9.343704,0.001871,-1.305881,8.545322,-0.127364,-1.617883,-0.196306,8.701411,0,0.003471699,0
1785960019.163822,0.000481,0.000691,-0.001050,-0.119629,0.025879,-0.991455,0.996483,0.018301,0.081759,-0.001479,-0.997307,0.011322,-0.072465,0.000261,2.104492,9.380938,0.002629,-1.309963,8.310244,-0.125141,-1.577440,-0.195147,8.707103,0,0.003458097,0
1785960019.183819,0.001147,0.000824,-0.001583,-0.119629,0.025635,-0.991211,0.996455,0.018376,0.082084,-0.001487,-0.997451,0.011322,-0.070450,0.000268,2.113288,9.418266,0.003082,-1.309357,8.078747,-0.123283,-1.537650,-0.196101,8.713229,0,0.003459433,0
1785960019.203795,0.000481,0.001090,-0.001317,-0.119385,0.025635,-0.991455,0.996427,0.018449,0.082410,-0.001494,-0.997589,0.011331,-0.068473,0.000272,2.121739,9.455739,0.003701,-1.309880,7.851688,-0.121197,-1.498227,-0.196248,8.718625,0,0.003459577,0
1785960019.223801,0.000880,0.000558,-0.001183,-0.119629,0.024902,-0.991455,0.996398,0.018523,0.082733,-0.001500,-0.997722,0.011247,-0.066516,0.000276,2.130331,9.492925,0.004376,-1.299560,7.626943,-0.118289,-1.459868,-0.197110,8.724026,0,0.003460946,0
1785960019.244148,0.000614,0.001357,-0.001050,-0.119629,0.026123,-0.991943,0.996370,0.018596,0.083060,-0.001506,-0.997847,0.011348,-0.064588,0.000278,2.138942,9.530531,0.005176,-1.310663,7.405601,-0.116712,-1.421899,-0.194303,8.728736,0,0.003476546,0
1785960019.263807,0.000348,0.001090,-0.001183,-0.119629,0.026367,-0.991699,0.996341,0.018669,0.083386,-0.001511,-0.997967,0.011459,-0.062690,0.000280,2.147419,9.567981,0.005904,-1.322951,7.187562,-0.115295,-1.384267,-0.196112,8.733901,0,0.003458902,0
1785960019.283770,0.000481,0.000691,-0.000917,-0.118896,0.025635,-0.991211,0.996313,0.018742,0.083709,-0.001516,-0.998082,0.011452,-0.060833,0.000281,2.155926,9.605212,0.006772,-1.321623,6.974431,-0.112798,-1.346432,-0.199006,8.739092,0,0.003458603,0
1785960019.303795,0.000747,0.001090,-0.001317,-0.119629,0.026611,-0.991211,0.996284,0.018817,0.084035,-0.001523,-0.998192,0.011574,-0.058987,0.000286,2.164653,9.642656,0.007439,-1.335172,6.762506,-0.111679,-1.311027,-0.197865,8.743587,0,0.003461046,0
1785960019.323981,0.000614,0.000824,-0.001050,-0.119873,0.024902,-0.991943,0.996255,0.018889,0.084360,-0.001528,-0.998299,0.011445,-0.057166,0.000288,2.173109,9.679991,0.008224,-1.319938,6.553554,-0.108594,-1.275198,-0.201995,8.747145,0,0.003469712,0
1785960019.344082,0.000747,0.001090,-0.000784,-0.119629,0.026123,-0.991455,0.996226,0.018964,0.084685,-0.001533,-0.998399,0.011516,-0.055374,0.000287,2.181829,9.717437,0.009202,-1.327599,6.347812,-0.106589,-1.239471,-0.198248,8.751836,0,0.003472638,0
1785960019.363869,0.000614,0.000691,-0.000917,-0.119629,0.025635,-0.991211,0.996197,0.019037,0.085009,-0.001537,-0.998496,0.011511,-0.053607,0.000288,2.190399,9.754669,0.010089,-1.326567,6.145111,-0.104261,-1.204387,-0.200160,8.756015,0,0.003461454,0
1785960019.383973,0.000348,0.000691,-0.000784,-0.119141,0.025635,-0.991455,0.996168,0.019109,0.085333,-0.001541,-0.998587,0.011514,-0.051877,0.000288,2.198846,9.791896,0.011062,-1.326519,5.946580,-0.101902,-1.169402,-0.200119,8.759549,0,0.003466526,0
1785960019.403870,0.000880,0.001357,-0.001450,-0.119629,0.025146,-0.991211,0.996139,0.019183,0.085660,-0.001549,-0.998675,0.011455,-0.050170,0.000294,2.207461,9.829535,0.011656,-1.319354,5.750743,-0.099998,-1.136211,-0.200593,8.763363,0,0.003461573,0
1785960019.425051,0.000614,0.000691,-0.001317,-0.119629,0.025879,-0.991455,0.996109,0.019256,0.085983,-0.001556,-0.998758,0.011513,-0.048469,0.000300,2.216027,9.866768,0.012333,-1.325616,5.555565,-0.098690,-1.102736,-0.198761,8.766575,0,0.003512679,0
1785960019.444072,0.000481,0.000824,-0.001583,-0.119629,0.025391,-0.992188,0.996080,0.019328,0.086308,-0.001564,-0.998838,0.011495,-0.046809,0.000306,2.224432,9.904097,0.012854,-1.323236,5.365156,-0.097129,-1.069490,-0.200430,8.769107,0,0.003458856,0
1785960019.464324,0.000348,0.000691,-0.001450,-0.119141,0.025391,-0.992188,0.996050,0.019400,0.086632,-0.001571,-0.998913,0.011488,-0.045181,0.000312,2.232788,9.941343,0.013457,-1.322173,5.178339,-0.095623,-1.036532,-0.200115,8.772219,0,0.003470880,0
1785960019.483895,0.000481,0.001090,-0.000917,-0.119385,0.025635,-0.990967,0.996020,0.019473,0.086957,-0.001576,-0.998984,0.011522,-0.043575,0.000313,2.241301,9.978801,0.014389,-1.325690,4.994163,-0.093721,-1.005000,-0.199724,8.776377,0,0.003450915,0
1785960019.503946,0.000880,0.001090,-0.000917,-0.120117,0.026123,-0.991455,0.995991,0.019548,0.087283,-0.001581,-0.999051,0.011607,-0.041977,0.000314,2.250083,10.016248,0.015333,-1.335184,4.810866,-0.092124,-0.974328,-0.199819,8.778672,0,0.003456330,0
1785960019.523970,0.000747,0.000558,-0.001050,-0.119385,0.026123,-0.990723,0.995961,0.019622,0.087606,-0.001586,-0.999115,0.011678,-0.040410,0.000317,2.258796,10.053390,0.016197,-1.343004,4.631189,-0.090617,-0.942222,-0.201528,8.782057,0,0.003459272,0
1785960019.543972,0.000747,0.001224,-0.000917,-0.119141,0.025391,-0.991699,0.995930,0.019696,0.087932,-0.001591,-0.999176,0.011637,-0.038883,0.000318,2.267444,10.090927,0.017145,-1.337961,4.456097,-0.088507,-0.911449,-0.203651,8.783570,0,0.003460556,0
1785960019.563917,0.000481,0.001090,-0.001716,-0.119629,0.025391,-0.990967,0.995900,0.019768,0.088258,-0.001600,-0.999234,0.011615,-0.037366,0.000327,2.275846,10.128409,0.017628,-1.335208,4.282114,-0.087391,-0.882021,-0.202910,8.786699,0,0.003459088,0
1785960019.583867,0.000880,0.000824,-0.001183,-0.118896,0.025635,-0.991943,0.995870,0.019843,0.088582,-0.001606,-0.999288,0.011630,-0.035885,0.000331,2.284581,10.165715,0.018430,-1.336723,4.112284,-0.085898,-0.851538,-0.202162,8.788008,0,0.003458158,0
1785960019.603835,0.000081,0.000691,-0.001050,-0.119629,0.025879,-0.991943,0.995840,0.019914,0.088905,-0.001611,-0.999339,0.011682,-0.034410,0.000333,2.292884,10.202938,0.019313,-1.342340,3.943108,-0.084367,-0.823246,-0.202379,8.790128,0,0.003458285,0
1785960019.623941,0.000747,0.000824,-0.001317,-0.119141,0.025635,-0.990967,0.995809,0.019988,0.089230,-0.001618,-0.999388,0.011691,-0.032964,0.000338,2.301525,10.240248,0.020048,-1.343131,3.777424,-0.083046,-0.793889,-0.203503,8.793118,0,0.003464224,0
1785960019.644007,0.000481,0.000691,-0.001050,-0.119629,0.025635,-0.991943,0.995779,0.020060,0.089553,-0.001624,-0.999434,0.011699,-0.031532,0.000340,2.310030,10.277477,0.020937,-1.343887,3.613208,-0.081423,-0.766049,-0.203731,8.794048,0,0.003467028,0
1785960019.664130,0.000747,0.001090,-0.001317,-0.119629,0.026855,-0.991211,0.995748,0.020135,0.089878,-0.001630,-0.999476,0.011867,-0.030118,0.000346,2.318811,10.314908,0.021714,-1.362965,3.451125,-0.080699,-0.738068,-0.202632,8.796586,0,0.003471540,0
1785960019.683749,0.000747,0.000957,-0.001050,-0.119629,0.025635,-0.991943,0.995717,0.020209,0.090203,-0.001636,-0.999517,0.011833,-0.028735,0.000348,2.327474,10.352289,0.022621,-1.358815,3.292494,-0.078964,-0.710340,-0.207152,8.797489,0,0.003453467,0
1785960019.707703,0.000614,0.001090,-0.000917,-0.119385,0.026123,-0.991455,0.995686,0.020283,0.090529,-0.001640,-0.999555,0.011878,-0.027346,0.000351,2.336142,10.389727,0.023627,-1.363815,3.133311,-0.077553,-0.683054,-0.205992,8.799587,0,0.003626292,0
1785960019.724132,0.000880,0.000691,-0.001317,-0.119141,0.025879,-0.991455,0.995655,0.020358,0.090852,-0.001647,-0.999591,0.011883,-0.026011,0.000354,2.344897,10.426952,0.024392,-1.364184,2.980274,-0.076083,-0.655454,-0.207128,8.801103,0,0.003432557,0
1785960019.743896,0.000747,0.000691,-0.001317,-0.118896,0.025635,-0.991455,0.995624,0.020432,0.091176,-0.001654,-0.999624,0.011860,-0.024703,0.000359,2.353556,10.464181,0.025159,-1.361325,2.830303,-0.074824,-0.629066,-0.207467,8.802497,0,0.003430251,0
1785960019.764005,0.000747,0.001090,-0.001050,-0.119141,0.026367,-0.991943,0.995592,0.020506,0.091501,-0.001660,-0.999655,0.011939,-0.023410,0.000362,2.362328,10.501614,0.026111,-1.370218,2.682100,-0.073596,-0.603748,-0.206272,8.803318,0,0.003443204,0
1785960019.783899,0.001147,0.000558,-0.000784,-0.119629,0.025879,-0.991943,0.995561,0.020583,0.091824,-0.001664,-0.999684,0.011933,-0.022124,0.000362,2.371285,10.538751,0.027199,-1.369410,2.534735,-0.071838,-0.578786,-0.208230,8.804509,0,0.003443823,0
1785960019.804095,0.000481,0.001090,-0.000917,-0.119873,0.025635,-0.991455,0.995530,0.020655,0.092149,-0.001669,-0.999712,0.011908,-0.020856,0.000364,2.379817,10.576202,0.028221,-1.366303,2.389410,-0.070222,-0.553931,-0.208493,8.806141,0,0.003457139,0
1785960019.823894,0.001013,0.000824,-0.000917,-0.119873,0.025391,-0.991943,0.995498,0.020730,0.092473,-0.001674,-0.999737,0.011856,-0.019607,0.000366,2.388624,10.613507,0.029237,-1.360264,2.246287,-0.068580,-0.529016,-0.208129,8.806739,0,0.003450277,0
1785960019.844007,0.000880,0.000824,-0.001183,-0.119385,0.025391,-0.992188,0.995466,0.020805,0.092797,-0.001680,-0.999761,0.011824,-0.018385,0.000370,2.397342,10.650816,0.030106,-1.356434,2.106192,-0.067355,-0.504044,-0.207145,8.807510,0,0.003458519,0
1785960019.863894,0.000747,0.000558,-0.001050,-0.119385,0.025391,-0.990967,0.995435,0.020878,0.093120,-0.001686,-0.999783,0.011809,-0.017176,0.000373,2.405999,10.687968,0.031052,-1.354613,1.967638,-0.066023,-0.480022,-0.206537,8.809659,0,0.003455041,0
1785960019.883893,0.000215,0.000691,-0.001317,-0.119141,0.026367,-0.991455,0.995403,0.020950,0.093443,-0.001692,-0.999801,0.011931,-0.015988,0.000379,2.414447,10.725176,0.031874,-1.368471,1.831500,-0.065279,-0.456095,-0.205374,8.810017,0,0.003457229,0
1785960019.904293,0.000614,0.001224,-0.001183,-0.118652,0.025635,-0.991455,0.995371,0.021024,0.093769,-0.001698,-0.999819,0.011926,-0.014832,0.000383,2.423069,10.762702,0.032779,-1.367792,1.699048,-0.064224,-0.432420,-0.208414,8.810732,0,0.003476005,0
1785960019.923895,0.000747,0.001090,-0.001183,-0.120117,0.025635,-0.991211,0.995338,0.021097,0.094095,-0.001704,-0.999835,0.011924,-0.013669,0.000388,2.431729,10.800158,0.033680,-1.367359,1.565805,-0.063106,-0.411183,-0.208293,8.811680,0,0.003456098,0
1785960019.944315,0.001013,0.000691,-0.001450,-0.119385,0.025879,-0.991699,0.995306,0.021173,0.094418,-0.001712,-0.999850,0.011955,-0.012530,0.000395,2.440560,10.837381,0.034430,-1.370807,1.435271,-0.062436,-0.387574,-0.207932,8.811847,0,0.003475971,0
1785960019.963868,0.000747,0.000425,-0.001317,-0.119629,0.025391,-0.991943,0.995274,0.021246,0.094740,-0.001719,-0.999864,0.011918,-0.011407,0.000400,2.449191,10.874463,0.035245,-1.366554,1.306570,-0.061465,-0.365420,-0.209082,8.812174,0,0.003453981,0
1785960019.983832,0.001013,0.000558,-0.000784,-0.119385,0.025391,-0.991699,0.995241,0.021321,0.095063,-0.001723,-0.999876,0.011895,-0.010306,0.000401,2.458042,10.911606,0.036381,-1.363751,1.180355,-0.059988,-0.343177,-0.208309,8.812963,0,0.003454936,0
1785960020.003770,0.000481,0.000425,-0.001050,-0.119629,0.025879,-0.991943,0.995209,0.021394,0.095385,-0.001729,-0.999886,0.011947,-0.009215,0.000404,2.466611,10.948667,0.037373,-1.369636,1.055294,-0.058910,-0.321789,-0.207457,8.813198,0,0.003454569,0
1785960020.023772,0.000348,0.001224,-0.001450,-0.118652,0.025635,-0.991943,0.995176,0.021466,0.095711,-0.001736,-0.999895,0.011959,-0.008164,0.000411,2.475063,10.986196,0.038158,-1.370979,0.934948,-0.058313,-0.299558,-0.208745,8.813588,0,0.003456997,0
1785960020.043873,0.000614,0.000691,-0.001317,-0.119385,0.025391,-0.991455,0.995143,0.021539,0.096034,-0.001743,-0.999903,0.011938,-0.007112,0.000417,2.483632,11.023427,0.039004,-1.368478,0.814352,-0.057528,-0.279585,-0.209174,8.814432,0,0.003463030,0
1785960020.063881,0.000880,0.000691,-0.001317,-0.119141,0.025391,-0.991211,0.995111,0.021614,0.096357,-0.001750,-0.999910,0.011925,-0.006079,0.000423,2.492363,11.060656,0.039857,-1.366950,0.695951,-0.056778,-0.258695,-0.208701,8.815003,0,0.003463651,0
1785960020.083834,0.000747,0.000425,-0.001050,-0.119873,0.025391,-0.991211,0.995078,0.021687,0.096679,-0.001755,-0.999916,0.011919,-0.005047,0.000426,2.501029,11.097729,0.040860,-1.366152,0.577726,-0.055725,-0.239106,-0.208471,8.815277,0,0.003461746,0
1785960020.103806,0.000348,0.001090,-0.001450,-0.119629,0.025391,-0.991699,0.995044,0.021759,0.097005,-0.001763,-0.999921,0.011920,-0.004043,0.000433,2.509432,11.135191,0.041654,-1.366144,0.462614,-0.055179,-0.218749,-0.208418,8.815013,0,0.003461133,0
1785960020.123848,0.000081,0.001224,-0.001050,-0.118652,0.026611,-0.991211,0.995011,0.021830,0.097330,-0.001768,-0.999922,0.012087,-0.003065,0.000437,2.517898,11.172683,0.042723,-1.385237,0.350559,-0.054288,-0.198093,-0.207251,8.815679,0,0.003463658,0
1785960020.144308,0.000481,0.000691,-0.001050,-0.119141,0.025391,-0.991455,0.994978,0.021903,0.097654,-0.001773,-0.999925,0.012048,-0.002092,0.000440,2.526436,11.209904,0.043754,-1.380728,0.239100,-0.053338,-0.179295,-0.211663,8.815496,0,0.003483417,0
1785960020.163858,0.000747,0.001623,-0.000917,-0.118896,0.026123,-0.991211,0.994944,0.021977,0.097981,-0.001778,-0.999926,0.012117,-0.001146,0.000442,2.535240,11.247634,0.044911,-1.388634,0.130752,-0.052269,-0.160139,-0.210114,8.815858,0,0.003459453,0
1785960020.183950,0.000481,0.000691,-0.001183,-0.119141,0.026123,-0.991699,0.994910,0.022051,0.098304,-0.001784,-0.999926,0.012171,-0.000203,0.000447,2.543852,11.284839,0.045892,-1.394693,0.022691,-0.051513,-0.141657,-0.211516,8.815396,0,0.003464498,0
1785960020.203807,0.000747,0.001090,-0.001317,-0.119629,0.025879,-0.991943,0.994877,0.022125,0.098629,-0.001791,-0.999925,0.012177,0.000726,0.000453,2.552565,11.322283,0.046804,-1.395378,-0.083870,-0.050907,-0.123719,-0.212747,8.815154,0,0.003458301,0
1785960020.223947,0.000747,0.000558,-0.000917,-0.119141,0.026123,-0.991943,0.994843,0.022199,0.098952,-0.001796,-0.999924,0.012217,0.001642,0.000455,2.561363,11.359404,0.047950,-1.399951,-0.188727,-0.049879,-0.104886,-0.212618,8.815141,0,0.003465721,0
1785960020.243867,0.000880,0.000291,-0.000917,-0.119629,0.025635,-0.991699,0.994809,0.022274,0.099273,-0.001801,-0.999922,0.012185,0.002551,0.000457,2.570170,11.396386,0.049080,-1.396219,-0.292919,-0.048860,-0.087368,-0.213863,8.815324,0,0.003461924,0
1785960020.263812,0.000614,0.001224,-0.001450,-0.119385,0.025635,-0.991699,0.994775,0.022347,0.099599,-0.001808,-0.999920,0.012167,0.003433,0.000465,2.578776,11.433913,0.049932,-1.394110,-0.394058,-0.048504,-0.069463,-0.213273,8.815265,0,0.003460076,0
1785960020.284274,0.001147,0.000558,-0.001183,-0.119629,0.025146,-0.991455,0.994741,0.022422,0.099921,-0.001815,-0.999918,0.012089,0.004314,0.000470,2.587655,11.471066,0.050914,-1.385188,-0.494957,-0.047902,-0.052265,-0.213288,8.815416,0,0.003480813,0
1785960020.303811,0.000348,0.000691,-0.001450,-0.119141,0.025635,-0.991455,0.994707,0.022494,0.100244,-0.001822,-0.999913,0.012107,0.005172,0.000477,2.596116,11.508287,0.051764,-1.387121,-0.593291,-0.047537,-0.034521,-0.211432,8.815315,0,0.003456947,0
1785960020.324112,0.000081,0.000691,-0.001050,-0.118896,0.025635,-0.991699,0.994673,0.022565,0.100568,-0.001827,-0.999908,0.012124,0.006014,0.000481,2.604479,11.545496,0.052855,-1.389029,-0.689799,-0.046797,-0.017449,-0.211809,8.814902,0,0.003471531,0
1785960020.343853,0.000614,0.000691,-0.001183,-0.118896,0.025879,-0.991211,0.994638,0.022638,0.100891,-0.001833,-0.999902,0.012168,0.006844,0.000486,2.613160,11.582702,0.053879,-1.394094,-0.784884,-0.046169,-0.000921,-0.211784,8.815201,0,0.003458636,0
1785960020.363904,0.000747,0.001224,-0.001450,-0.119141,0.025391,-0.991699,0.994603,0.022712,0.101216,-0.001841,-0.999897,0.012136,0.007657,0.000494,2.621830,11.620232,0.054755,-1.390454,-0.878037,-0.045953,0.015009,-0.213105,8.814484,0,0.003462178,0
1785960020.384248,0.000348,0.001623,-0.000917,-0.119629,0.025635,-0.991211,0.994568,0.022784,0.101544,-0.001845,-0.999890,0.012151,0.008464,0.000497,2.630354,11.657973,0.055962,-1.392154,-0.970480,-0.045120,0.030382,-0.212311,8.814756,0,0.003477327,0
1785960020.403815,0.000747,0.000291,-0.000917,-0.119629,0.026123,-0.991211,0.994534,0.022858,0.101865,-0.001850,-0.999882,0.012226,0.009271,0.000499,2.639156,11.694939,0.057150,-1.400652,-1.062956,-0.044169,0.046474,-0.212033,8.814491,0,0.003455606,0
1785960020.424854,0.000348,0.000558,-0.000917,-0.119873,0.025391,-0.991455,0.994499,0.022930,0.102187,-0.001855,-0.999875,0.012188,0.010067,0.000502,2.647644,11.732077,0.058333,-1.396364,-1.154242,-0.043433,0.062003,-0.214284,8.813930,0,0.003502053,0
1785960020.444363,0.000348,0.000558,-0.000917,-0.119629,0.025391,-0.991455,0.994464,0.023002,0.102510,-0.001860,-0.999867,0.012165,0.010845,0.000504,2.656140,11.769212,0.059523,-1.393643,-1.243433,-0.042646,0.077882,-0.213548,8.813646,0,0.003471727,0
1785960020.464179,0.000747,0.000824,-0.001450,-0.119385,0.025635,-0.991211,0.994429,0.023075,0.102833,-0.001867,-0.999858,0.012180,0.011606,0.000512,2.664838,11.806507,0.060422,-1.395397,-1.330615,-0.042457,0.093343,-0.212750,8.813585,0,0.003461986,0
1785960020.484044,0.000880,0.000824,-0.001050,-0.119385,0.025635,-0.991211,0.994394,0.023150,0.103157,-0.001873,-0.999849,0.012193,0.012355,0.000516,2.673662,11.843791,0.061560,-1.396854,-1.416376,-0.041840,0.108264,-0.213017,8.813244,0,0.003456740,0
1785960020.504681,0.000481,0.000957,-0.000917,-0.119629,0.025391,-0.991211,0.994358,0.023222,0.103481,-0.001878,-0.999840,0.012175,0.013095,0.000519,2.682244,11.881154,0.062779,-1.394817,-1.501236,-0.041176,0.122665,-0.213576,8.812885,0,0.003485767,0
1785960020.524097,0.000614,0.001090,-0.001583,-0.119629,0.025635,-0.990967,0.994323,0.023295,0.103806,-0.001886,-0.999830,0.012197,0.013822,0.000528,2.690851,11.918604,0.063624,-1.397253,-1.584536,-0.041149,0.137180,-0.212951,8.812769,0,0.003455495,0
1785960020.543933,0.000880,0.000558,-0.001583,-0.118896,0.025879,-0.990967,0.994287,0.023370,0.104129,-0.001894,-0.999819,0.012246,0.014533,0.000537,2.699655,11.955740,0.064469,-1.402880,-1.666015,-0.041127,0.152269,-0.213060,8.812374,0,0.003450640,0
1785960020.564157,0.000348,0.001224,-0.001050,-0.119629,0.025391,-0.991455,0.994252,0.023442,0.104454,-0.001899,-0.999809,0.012222,0.015234,0.000541,2.708152,11.993258,0.065635,-1.400073,-1.746408,-0.040672,0.165344,-0.214606,8.811468,0,0.003463464,0
1785960020.583906,0.001147,0.000824,-0.001183,-0.119385,0.025391,-0.991699,0.994216,0.023517,0.104778,-0.001906,-0.999799,0.012200,0.015925,0.000546,2.717096,12.030549,0.066719,-1.397614,-1.825531,-0.040342,0.179430,-0.213962,8.810828,0,0.003452931,0
1785960020.604076,0.000481,0.001090,-0.000917,-0.119873,0.025879,-0.991455,0.994180,0.023590,0.105103,-0.001910,-0.999787,0.012255,0.016611,0.000549,2.725737,12.067975,0.067981,-1.403907,-1.904207,-0.039612,0.192426,-0.213170,8.810658,0,0.003462938,0
1785960020.623850,0.000614,0.000691,-0.001317,-0.119629,0.025635,-0.991211,0.994144,0.023663,0.105426,-0.001917,-0.999775,0.012266,0.017286,0.000556,2.734384,12.105187,0.068999,-1.405142,-1.981591,-0.039406,0.206217,-0.214454,8.810436,0,0.003453597,0
1785960020.644199,0.000348,0.001090,-0.001183,-0.119141,0.025879,-0.991211,0.994108,0.023735,0.105750,-0.001923,-0.999763,0.012311,0.017943,0.000562,2.742939,12.142616,0.070121,-1.410286,-2.056824,-0.039060,0.219863,-0.214460,8.809984,0,0.003471037,0
1785960020.663813,0.000747,0.000824,-0.000784,-0.119385,0.025879,-0.992188,0.994071,0.023810,0.106074,-0.001927,-0.999751,0.012339,0.018592,0.000563,2.751765,12.179882,0.071474,-1.413568,-2.131194,-0.038251,0.232548,-0.215257,8.808532,0,0.003452897,0
1785960020.684334,0.000481,0.000957,-0.000917,-0.120361,0.025391,-0.991455,0.994035,0.023882,0.106398,-0.001932,-0.999739,0.012301,0.019243,0.000566,2.760349,12.217244,0.072742,-1.409155,-2.205868,-0.037782,0.244264,-0.216341,8.808786,0,0.003477881,0
1785960020.703951,0.000481,0.001224,-0.001317,-0.120117,0.025635,-0.991455,0.993998,0.023954,0.106724,-0.001939,-0.999726,0.012308,0.019879,0.000573,2.768919,12.254762,0.073797,-1.409912,-2.278703,-0.037650,0.257244,-0.215331,8.808323,0,0.003458134,0
1785960020.724017,0.000481,0.000957,-0.001583,-0.119629,0.025635,-0.991455,0.993962,0.024027,0.107048,-0.001947,-0.999714,0.012316,0.020501,0.000583,2.777468,12.292132,0.074696,-1.410811,-2.350003,-0.037872,0.270242,-0.215444,8.807830,0,0.003462437,0
1785960020.744143,0.000348,0.000824,-0.001583,-0.119385,0.026611,-0.992188,0.993925,0.024099,0.107371,-0.001955,-0.999699,0.012450,0.021114,0.000593,2.786055,12.329401,0.075622,-1.426226,-2.420283,-0.037807,0.282709,-0.214634,8.806600,0,0.003468210,0
1785960020.764163,0.000747,0.000558,-0.001183,-0.118652,0.025391,-0.991211,0.993888,0.024173,0.107693,-0.001961,-0.999687,0.012393,0.021707,0.000598,2.794804,12.366532,0.076755,-1.419646,-2.488320,-0.037757,0.295515,-0.218404,8.807010,0,0.003468059,0
1785960020.783785,0.000481,0.001357,-0.001050,-0.119873,0.025146,-0.991455,0.993851,0.024245,0.108019,-0.001966,-0.999675,0.012320,0.022297,0.000603,2.803369,12.404128,0.077983,-1.411314,-2.555945,-0.037596,0.305781,-0.217566,8.806301,0,0.003450945,0
1785960020.803815,0.000614,0.000691,-0.001183,-0.119385,0.025879,-0.991943,0.993814,0.024318,0.108342,-0.001972,-0.999662,0.012363,0.022881,0.000608,2.812083,12.441326,0.079140,-1.416229,-2.622831,-0.037324,0.317962,-0.215366,8.805334,0,0.003455466,0
1785960020.823776,0.000880,0.000824,-0.001450,-0.118896,0.025635,-0.991699,0.993777,0.024393,0.108665,-0.001980,-0.999648,0.012364,0.023447,0.000617,2.820904,12.478611,0.080147,-1.416367,-2.687775,-0.037482,0.329867,-0.216384,8.805043,0,0.003455960,0
1785960020.843837,0.000614,0.000558,-0.001450,-0.119629,0.024902,-0.991211,0.993740,0.024465,0.108988,-0.001988,-0.999636,0.012273,0.024015,0.000625,2.829476,12.515764,0.081131,-1.405964,-2.752905,-0.037896,0.340293,-0.217178,8.805012,0,0.003460552,0
1785960020.863813,0.001147,0.001090,-0.001317,-0.119141,0.025879,-0.992188,0.993702,0.024541,0.109312,-0.001995,-0.999622,0.012331,0.024566,0.000632,2.838493,12.553192,0.082240,-1.412531,-2.815999,-0.037771,0.351816,-0.214308,8.803558,0,0.003460405,0
1785960020.883792,0.000481,0.001090,-0.001317,-0.119385,0.025879,-0.991455,0.993665,0.024614,0.109637,-0.002001,-0.999608,0.012381,0.025111,0.000640,2.847125,12.590621,0.083354,-1.418320,-2.878545,-0.037683,0.362362,-0.215547,8.803735,0,0.003460385,0
1785960020.903835,0.000880,0.000691,-0.001183,-0.119385,0.026123,-0.991455,0.993627,0.024689,0.109960,-0.002008,-0.999593,0.012449,0.025653,0.000645,2.856028,12.627810,0.084546,-1.426097,-2.940653,-0.037382,0.373134,-0.216202,8.803177,0,0.003463169,0
1785960020.923949,0.000614,0.000957,-0.001450,-0.119141,0.025635,-0.991211,0.993590,0.024762,0.110284,-0.002015,-0.999580,0.012440,0.026180,0.000654,2.864703,12.665171,0.085585,-1.425034,-3.001006,-0.037652,0.383948,-0.218055,8.802850,0,0.003468269,0
1785960020.943840,0.000081,0.000425,-0.001583,-0.119385,0.025391,-0.991455,0.993552,0.024832,0.110605,-0.002023,-0.999566,0.012406,0.026705,0.000664,2.873021,12.702236,0.086529,-1.421121,-3.061198,-0.038141,0.394129,-0.218207,8.802067,0,0.003462578,0
1785960020.964112,0.000614,0.001090,-0.000784,-0.118896,0.026123,-0.990967,0.993514,0.024906,0.110930,-0.002027,-0.999552,0.012477,0.027213,0.000666,2.881844,12.739640,0.087988,-1.429336,-3.119487,-0.037439,0.404771,-0.216695,8.802037,0,0.003474564,0
1785960020.983989,0.000481,0.000824,-0.000784,-0.119385,0.025879,-0.991455,0.993476,0.024979,0.111253,-0.002031,-0.999537,0.012498,0.027720,0.000668,2.890553,12.776898,0.089436,-1.431708,-3.177568,-0.036880,0.414304,-0.218358,8.800972,0,0.003466706,0
1785960021.004001,0.000747,0.000824,-0.001183,-0.119385,0.025635,-0.991943,0.993438,0.025053,0.111576,-0.002037,-0.999524,0.012479,0.028217,0.000674,2.899340,12.814174,0.090650,-1.429566,-3.234562,-0.036920,0.424235,-0.218936,8.799929,0,0.003466584,0
1785960021.023826,0.000747,0.000558,-0.001317,-0.119873,0.026123,-0.992188,0.993400,0.025127,0.111898,-0.002044,-0.999509,0.012529,0.028716,0.000681,2.908150,12.851291,0.091793,-1.435324,-3.291741,-0.036867,0.433543,-0.218068,8.799146,0,0.003458541,0
1785960021.043931,0.000880,0.000824,-0.001317,-0.119873,0.026123,-0.991211,0.993362,0.025201,0.112221,-0.002051,-0.999494,0.012570,0.029205,0.000689,2.917040,12.888560,0.092950,-1.439976,-3.347898,-0.036874,0.443264,-0.219010,8.799545,0,0.003464357,0
1785960021.063794,0.000614,0.001224,-0.001183,-0.119385,0.025879,-0.991699,0.993323,0.025275,0.112546,-0.002057,-0.999480,0.012571,0.029676,0.000695,2.925786,12.926057,0.094200,-1.440088,-3.401830,-0.036895,0.453275,-0.220090,8.798483,0,0.003458469,0
1785960021.083810,0.000215,0.000691,-0.001050,-0.119141,0.025635,-0.992188,0.993284,0.025346,0.112869,-0.002062,-0.999467,0.012543,0.030140,0.000700,2.934299,12.963249,0.095513,-1.436932,-3.455025,-0.036896,0.462838,-0.220418,8.797443,0,0.003460506,0
1785960021.103844,0.000481,0.000425,-0.001716,-0.119629,0.025391,-0.991943,0.993246,0.025418,0.113190,-0.002071,-0.999453,0.012491,0.030605,0.000711,2.942839,13.000317,0.096425,-1.430875,-3.508349,-0.037732,0.471498,-0.220049,8.797155,0,0.003462857,0
1785960021.123891,0.000348,0.000558,-0.001183,-0.118408,0.025879,-0.991211,0.993207,0.025490,0.113512,-0.002077,-0.999439,0.012524,0.031050,0.000718,2.951457,13.037427,0.097678,-1.434654,-3.559440,-0.037708,0.481802,-0.218544,8.797359,0,0.003465190,0
1785960021.143885,0.000215,0.000291,-0.000784,-0.119629,0.026123,-0.991699,0.993169,0.025562,0.113832,-0.002081,-0.999424,0.012578,0.031505,0.000720,2.960049,13.074373,0.099162,-1.440945,-3.611614,-0.037123,0.489362,-0.218963,8.796312,0,0.003464627,0
1785960021.163885,0.000747,0.001357,-0.001183,-0.119141,0.025635,-0.991943,0.993130,0.025636,0.114158,-0.002087,-0.999411,0.012552,0.031935,0.000726,2.968862,13.111949,0.100441,-1.437952,-3.660881,-0.037330,0.498561,-0.220403,8.795499,0,0.003464534,0
1785960021.183829,0.000614,0.000558,-0.001183,-0.119385,0.026123,-0.991699,0.993091,0.025709,0.114480,-0.002093,-0.999396,0.012600,0.032371,0.000733,2.977642,13.149056,0.101713,-1.443428,-3.710835,-0.037247,0.506891,-0.219416,8.795210,0,0.003462024,0
1785960021.203849,0.000747,0.000558,-0.001050,-0.119629,0.025879,-0.992188,0.993052,0.025783,0.114801,-0.002099,-0.999382,0.012601,0.032801,0.000738,2.986486,13.186166,0.103061,-1.443613,-3.760123,-0.037191,0.515181,-0.220556,8.794150,0,0.003463372,0
1785960021.224951,0.000348,0.000824,-0.001317,-0.119385,0.026123,-0.991699,0.993012,0.025856,0.115125,-0.002105,-0.999368,0.012641,0.033222,0.000746,2.995102,13.223429,0.104274,-1.448164,-3.808466,-0.037409,0.523787,-0.220400,8.794090,0,0.003510672,0
1785960021.243955,0.000481,0.000957,-0.001050,-0.119629,0.025391,-0.991455,0.992973,0.025928,0.115448,-0.002111,-0.999355,0.012575,0.033634,0.000751,3.003750,13.260778,0.105635,-1.440622,-3.855693,-0.037600,0.531792,-0.221883,8.793769,0,0.003456625,0
1785960021.263941,0.000880,0.000691,-0.001317,-0.119629,0.026123,-0.991455,0.992933,0.026003,0.115771,-0.002118,-0.999340,0.012621,0.034045,0.000759,3.012668,13.297965,0.106855,-1.445901,-3.902784,-0.037709,0.539905,-0.219762,8.793261,0,0.003457858,0
1785960021.283973,0.000614,0.000824,-0.001583,-0.119385,0.025635,-0.991943,0.992894,0.026076,0.116094,-0.002126,-0.999327,0.012594,0.034443,0.000769,3.021355,13.335247,0.107917,-1.442695,-3.948400,-0.038451,0.548169,-0.221186,8.792205,0,0.003460786,0
1785960021.303856,0.000215,0.000824,-0.001050,-0.119141,0.025635,-0.991455,0.992854,0.026147,0.116417,-0.002131,-0.999314,0.012580,0.034832,0.000774,3.029894,13.372511,0.109301,-1.441122,-3.993063,-0.038553,0.556203,-0.220711,8.792170,0,0.003456587,0
1785960021.323874,0.000614,0.000957,-0.001050,-0.119141,0.025635,-0.991943,0.992814,0.026220,0.116740,-0.002137,-0.999300,0.012567,0.035214,0.000780,3.038665,13.409850,0.110694,-1.439620,-4.036827,-0.038664,0.563804,-0.220350,8.791164,0,0.003459239,0
1785960021.344110,0.000614,0.000558,-0.001583,-0.119385,0.025635,-0.991699,0.992774,0.026293,0.117062,-0.002145,-0.999287,0.012559,0.035597,0.000790,3.047356,13.446978,0.111766,-1.438681,-4.080793,-0.039376,0.571115,-0.220071,8.790885,0,0.003470507,0
1785960021.363891,0.000614,0.000691,-0.001050,-0.120117,0.026123,-0.991455,0.992734,0.026367,0.117384,-0.002150,-0.999272,0.012618,0.035983,0.000795,3.056157,13.484157,0.113170,-1.445457,-4.125011,-0.039161,0.577865,-0.219420,8.790602,0,0.003459550,0
1785960021.383922,0.000481,0.001090,-0.000917,-0.119141,0.025635,-0.991455,0.992694,0.026439,0.117709,-0.002155,-0.999260,0.012601,0.036346,0.000800,3.064878,13.521567,0.114664,-1.443583,-4.166637,-0.039179,0.586313,-0.221077,8.790036,0,0.003462005,0
1785960021.403981,0.000614,0.000824,-0.001050,-0.119873,0.025879,-0.991211,0.992653,0.026512,0.118032,-0.002160,-0.999246,0.012621,0.036715,0.000805,3.073665,13.558826,0.116080,-1.445839,-4.208991,-0.039179,0.592741,-0.220472,8.789771,0,0.003465021,0
1785960021.424212,0.000880,0.000291,-0.001050,-0.119141,0.025879,-0.991943,0.992613,0.026587,0.118352,-0.002166,-0.999232,0.012634,0.037075,0.000810,3.082620,13.595776,0.117488,-1.447332,-4.250304,-0.039223,0.600810,-0.220790,8.788493,0,0.003474684,0
1785960021.443968,0.000348,0.000425,-0.000917,-0.119629,0.026611,-0.991455,0.992573,0.026660,0.118673,-0.002171,-0.999217,0.012745,0.037436,0.000814,3.091357,13.632784,0.119001,-1.460127,-4.291706,-0.038688,0.607350,-0.220408,8.788452,0,0.003461629,0
1785960021.464227,0.000348,0.001357,-0.001050,-0.119385,0.024902,-0.991699,0.992532,0.026731,0.118998,-0.002176,-0.999207,0.012604,0.037773,0.000820,3.099914,13.670366,0.120430,-1.443870,-4.330374,-0.039478,0.614478,-0.224284,8.787639,0,0.003473325,0
1785960021.484990,0.000481,0.000824,-0.001317,-0.120117,0.025635,-0.991211,0.992491,0.026803,0.119321,-0.002183,-0.999193,0.012596,0.038124,0.000829,3.108567,13.707638,0.121705,-1.443014,-4.370555,-0.039997,0.620451,-0.220731,8.787693,0,0.003503670,0
1785960021.504102,0.001013,0.000824,-0.000651,-0.119385,0.025635,-0.991943,0.992451,0.026879,0.119644,-0.002187,-0.999181,0.012588,0.038458,0.000830,3.117637,13.744885,0.123383,-1.442097,-4.408908,-0.039687,0.628052,-0.220491,8.786444,0,0.003455949,0
1785960021.524047,0.000614,0.000691,-0.001050,-0.118896,0.025879,-0.991699,0.992410,0.026952,0.119966,-0.002192,-0.999168,0.012620,0.038784,0.000836,3.126460,13.782061,0.124836,-1.445718,-4.446333,-0.039726,0.635109,-0.220140,8.786187,0,0.003455606,0
1785960021.543972,0.001280,0.000957,-0.000917,-0.119141,0.025879,-0.991699,0.992368,0.027029,0.120290,-0.002197,-0.999155,0.012639,0.039105,0.000840,3.135683,13.819386,0.126381,-1.447901,-4.483143,-0.039650,0.641201,-0.220618,8.785684,0,0.003454530,0
1785960021.564939,0.000215,0.000691,-0.001050,-0.119385,0.025879,-0.992432,0.992327,0.027101,0.120612,-0.002202,-0.999142,0.012659,0.039427,0.000846,3.144272,13.856563,0.127843,-1.450213,-4.520020,-0.039824,0.647286,-0.221181,8.784443,0,0.003498180,0
1785960021.584077,0.000614,0.001357,-0.001317,-0.118896,0.025391,-0.991455,0.992286,0.027174,0.120937,-0.002209,-0.999130,0.012612,0.039730,0.000854,3.153021,13.894138,0.129167,-1.444836,-4.554825,-0.040513,0.653959,-0.221978,8.784925,0,0.003452958,0
1785960021.604823,0.000081,0.000824,-0.001450,-0.119629,0.026123,-0.990967,0.992244,0.027244,0.121260,-0.002216,-0.999117,0.012679,0.040046,0.000865,3.161502,13.931398,0.130415,-1.452500,-4.591023,-0.040950,0.659254,-0.220410,8.784956,0,0.003487551,0
1785960021.624038,0.000614,0.000558,-0.001050,-0.119629,0.025635,-0.991699,0.992203,0.027317,0.121582,-0.002222,-0.999105,0.012659,0.040355,0.000870,3.170294,13.968504,0.131884,-1.450220,-4.626462,-0.041208,0.665491,-0.222102,8.783694,0,0.003448276,0
1785960021.643952,0.000481,0.001224,-0.001050,-0.119629,0.025635,-0.991699,0.992161,0.027390,0.121906,-0.002227,-0.999093,0.012647,0.040652,0.000876,3.179019,14.005990,0.133381,-1.448768,-4.660595,-0.041512,0.671407,-0.221722,8.783227,0,0.003448519,0
1785960021.664068,0.000747,0.000824,-0.001183,-0.119629,0.026123,-0.991211,0.992119,0.027464,0.122229,-0.002233,-0.999080,0.012702,0.040952,0.000883,3.187925,14.043240,0.134804,-1.455124,-4.694953,-0.041643,0.677308,-0.220918,8.783244,0,0.003457273,0
1785960021.684001,0.000747,0.000425,-0.001183,-0.119141,0.025635,-0.992188,0.992078,0.027538,0.122550,-0.002240,-0.999068,0.012678,0.041242,0.000890,3.196793,14.080271,0.136211,-1.452339,-4.728280,-0.042154,0.683739,-0.222480,8.781754,0,0.003456131,0
1785960021.704022,0.000481,0.001090,-0.001183,-0.119141,0.025391,-0.991699,0.992036,0.027610,0.122874,-0.002246,-0.999057,0.012633,0.041522,0.000898,3.205491,14.117688,0.137640,-1.447139,-4.760342,-0.042814,0.689296,-0.222288,8.781795,0,0.003458972,0
1785960021.724925,0.000614,0.000824,-0.001317,-0.119629,0.025635,-0.991943,0.991994,0.027683,0.123197,-0.002252,-0.999045,0.012630,0.041807,0.000907,3.214260,14.154952,0.138991,-1.446778,-4.793007,-0.043468,0.694324,-0.221111,8.781117,0,0.003498795,0
1785960021.744334,0.000481,0.001090,-0.000917,-0.120117,0.025635,-0.991943,0.991951,0.027755,0.123521,-0.002257,-0.999034,0.012629,0.042088,0.000911,3.223004,14.192358,0.140590,-1.446702,-4.825344,-0.043570,0.699368,-0.221080,8.780655,0,0.003464995,0
1785960021.764300,0.000880,0.001224,-0.000651,-0.119141,0.026611,-0.992188,0.991909,0.027831,0.123845,-0.002261,-0.999021,0.012756,0.042357,0.000913,3.232139,14.229804,0.142386,-1.461287,-4.856192,-0.042796,0.705828,-0.220002,8.779952,0,0.003463302,0
1785960021.784290,0.000348,0.000957,-0.000784,-0.119385,0.025879,-0.991699,0.991866,0.027903,0.124168,-0.002265,-0.999009,0.012759,0.042624,0.000917,3.240872,14.267120,0.144082,-1.461637,-4.886828,-0.042802,0.710900,-0.223312,8.779925,0,0.003463073,0
1785960021.804180,0.000481,0.001090,-0.001450,-0.119385,0.025391,-0.991699,0.991824,0.027975,0.124492,-0.002272,-0.998999,0.012697,0.042884,0.000927,3.249538,14.304544,0.145383,-1.454497,-4.916654,-0.043891,0.716105,-0.223812,8.779481,0,0.003458640,0
1785960021.824306,0.000348,0.000691,-0.001450,-0.119141,0.025879,-0.991211,0.991781,0.028047,0.124814,-0.002279,-0.998987,0.012720,0.043145,0.000937,3.258182,14.341727,0.146690,-1.457079,-4.946508,-0.044588,0.721513,-0.222120,8.779557,0,0.003465362,0
1785960021.844049,0.000747,0.000425,-0.001050,-0.118652,0.025879,-0.990967,0.991739,0.028121,0.125135,-0.002285,-0.998976,0.012737,0.043398,0.000943,3.267123,14.378742,0.148233,-1.458996,-4.975619,-0.044826,0.727145,-0.222480,8.779348,0,0.003454103,0
1785960021.864269,0.000081,0.000957,-0.001317,-0.119385,0.025391,-0.990967,0.991696,0.028191,0.125458,-0.002291,-0.998966,0.012689,0.043649,0.000953,3.275586,14.416084,0.149627,-1.453504,-5.004338,-0.045761,0.731273,-0.223407,8.778915,0,0.003465958,0
1785960021.884148,0.000747,0.000824,-0.001183,-0.119141,0.026611,-0.991455,0.991653,0.028266,0.125781,-0.002297,-0.998953,0.012810,0.043898,0.000960,3.284579,14.453317,0.151132,-1.467330,-5.032916,-0.045648,0.736444,-0.221113,8.778024,0,0.003460331,0
1785960021.903960,0.000481,0.001090,-0.001450,-0.119629,0.025635,-0.990723,0.991609,0.028338,0.126104,-0.002305,-0.998943,0.012774,0.044142,0.000970,3.293276,14.490734,0.152469,-1.463221,-5.060918,-0.046636,0.740781,-0.224483,8.778271,0,0.003453220,0
1785960021.924208,-0.000052,0.000824,-0.001183,-0.119629,0.026367,-0.991455,0.991566,0.028408,0.126427,-0.002310,-0.998931,0.012847,0.044386,0.000978,3.301780,14.527974,0.153977,-1.471565,-5.089005,-0.046827,0.745603,-0.223147,8.777128,0,0.003466466,0
1785960021.944357,0.000880,0.000558,-0.000917,-0.119629,0.025635,-0.991211,0.991523,0.028483,0.126748,-0.002315,-0.998921,0.012799,0.044628,0.000983,3.310784,14.565068,0.155622,-1.466058,-5.116675,-0.047276,0.750444,-0.225112,8.776911,0,0.003472265,0
1785960021.964232,0.000747,0.001224,-0.001183,-0.119385,0.025391,-0.991699,0.991480,0.028556,0.127073,-0.002322,-0.998912,0.012733,0.044855,0.000991,3.319663,14.602556,0.157134,-1.458422,-5.142751,-0.048157,0.755282,-0.224430,8.776036,0,0.003464936,0
1785960021.984622,0.000215,0.000558,-0.001050,-0.119873,0.025635,-0.990967,0.991436,0.028627,0.127394,-0.002327,-0.998901,0.012722,0.045092,0.000997,3.328266,14.639654,0.158712,-1.457211,-5.170000,-0.048628,0.759365,-0.222978,8.776389,0,0.003481367,0
1785960022.004028,0.000348,0.000824,-0.000651,-0.119385,0.026367,-0.991455,0.991393,0.028700,0.127716,-0.002330,-0.998890,0.012810,0.045320,0.001000,3.337093,14.676873,0.160561,-1.467336,-5.196117,-0.048109,0.764453,-0.222013,8.775491,0,0.003451754,0
1785960022.023977,0.000614,0.000558,-0.001317,-0.119629,0.025879,-0.991455,0.991349,0.028773,0.128037,-0.002337,-0.998880,0.012809,0.045547,0.001009,3.345920,14.713973,0.162001,-1.467178,-5.222139,-0.048819,0.768714,-0.224151,8.775041,0,0.003452633,0
1785960022.044253,0.000081,0.001090,-0.001317,-0.118896,0.025635,-0.991943,0.991305,0.028844,0.128361,-0.002343,-0.998870,0.012781,0.045757,0.001018,3.354441,14.751380,0.163463,-1.463918,-5.246211,-0.049770,0.773776,-0.224461,8.774156,0,0.003467209,0
1785960022.063865,0.000880,0.000824,-0.001317,-0.119385,0.025146,-0.992188,0.991261,0.028917,0.128684,-0.002350,-0.998862,0.012690,0.045968,0.001027,3.363361,14.788648,0.164907,-1.453412,-5.270528,-0.050953,0.777450,-0.224232,8.773549,0,0.003449939,0
1785960022.083881,0.001013,0.000691,-0.001317,-0.120117,0.025879,-0.991455,0.991217,0.028992,0.129005,-0.002357,-0.998851,0.012720,0.046189,0.001036,3.372414,14.825824,0.166367,-1.456787,-5.295871,-0.051497,0.780886,-0.221669,8.773944,0,0.003454090,0
1785960022.103821,0.000348,0.000558,-0.001050,-0.119873,0.025635,-0.991699,0.991173,0.029064,0.129327,-0.002363,-0.998841,0.012715,0.046404,0.001043,3.381109,14.862920,0.167981,-1.456241,-5.320536,-0.051962,0.785476,-0.222614,8.773280,0,0.003454005,0
1785960022.124032,0.000747,0.000558,-0.000651,-0.119873,0.025391,-0.992676,0.991129,0.029138,0.129648,-0.002366,-0.998832,0.012675,0.046614,0.001045,3.390073,14.900007,0.169832,-1.451587,-5.344607,-0.052165,0.789677,-0.222682,8.771918,0,0.003465475,0
1785960022.144036,0.000747,0.000957,-0.001317,-0.118896,0.026123,-0.990967,0.991085,0.029212,0.129971,-0.002373,-0.998822,0.012749,0.046812,0.001055,3.399035,14.937325,0.171332,-1.460125,-5.367364,-0.052544,0.794684,-0.221136,8.773271,0,0.003465316,0
1785960022.163842,0.000215,0.000824,-0.001317,-0.119141,0.025879,-0.990967,0.991040,0.029283,0.130293,-0.002380,-0.998812,0.012776,0.047010,0.001064,3.407663,14.974573,0.172827,-1.463189,-5.390008,-0.053190,0.798347,-0.222931,8.772865,0,0.003456722,0
1785960022.183889,0.000348,0.000691,-0.001583,-0.119141,0.026123,-0.991211,0.990996,0.029355,0.130615,-0.002388,-0.998802,0.012827,0.047205,0.001076,3.416353,15.011748,0.174172,-1.468991,-5.412498,-0.054024,0.802233,-0.223167,8.772243,0,0.003460551,0
1785960022.203842,-0.000052,0.000025,-0.001183,-0.119141,0.026123,-0.991455,0.990952,0.029425,0.130933,-0.002393,-0.998792,0.012868,0.047404,0.001084,3.424870,15.048528,0.175735,-1.473627,-5.435300,-0.054458,0.806194,-0.224232,8.771597,0,0.003459422,0
1785960022.224267,0.001013,0.000558,-0.001317,-0.119873,0.025391,-0.991455,0.990907,0.029500,0.131254,-0.002401,-0.998784,0.012792,0.047599,0.001094,3.433897,15.085635,0.177222,-1.464938,-5.457681,-0.055658,0.809243,-0.225530,8.771224,0,0.003478719,0
1785960022.243845,0.000747,0.000824,-0.001317,-0.118652,0.025391,-0.991211,0.990862,0.029573,0.131576,-0.002407,-0.998776,0.012744,0.047778,0.001103,3.442804,15.122890,0.178732,-1.459297,-5.478154,-0.056718,0.814232,-0.224101,8.771145,0,0.003457123,0
1785960022.263831,0.001147,0.001090,-0.001317,-0.119141,0.025146,-0.992188,0.990817,0.029648,0.131900,-0.002415,-0.998769,0.012669,0.047953,0.001112,3.451911,15.160304,0.180249,-1.450725,-5.498327,-0.057934,0.817178,-0.223294,8.769867,0,0.003458241,0
1785960022.283868,0.000481,0.000957,-0.001183,-0.119141,0.025879,-0.991943,0.990771,0.029721,0.132223,-0.002421,-0.998759,0.012717,0.048131,0.001120,3.460729,15.197621,0.181864,-1.456226,-5.518702,-0.058359,0.820641,-0.221224,8.769812,0,0.003461256,0
1785960022.304052,0.000481,0.000425,-0.001317,-0.119629,0.025635,-0.991699,0.990726,0.029793,0.132543,-0.002427,-0.998751,0.012721,0.048315,0.001130,3.469490,15.234644,0.183379,-1.456627,-5.539810,-0.059170,0.823729,-0.222393,8.769687,0,0.003469792,0
1785960022.323897,0.000481,0.000957,-0.000651,-0.119629,0.025879,-0.991699,0.990681,0.029866,0.132866,-0.002431,-0.998742,0.012757,0.048491,0.001133,3.478386,15.271943,0.185320,-1.460749,-5.560047,-0.059041,0.827221,-0.222223,8.769347,0,0.003461774,0
1785960022.343926,0.000614,0.000824,-0.001317,-0.119629,0.025635,-0.991943,0.990635,0.029939,0.133188,-0.002438,-0.998733,0.012750,0.048665,0.001142,3.487232,15.309194,0.186861,-1.459911,-5.579978,-0.059922,0.830698,-0.223121,8.768749,0,0.003463593,0
1785960022.364119,0.000081,0.001490,-0.000917,-0.119629,0.025635,-0.991699,0.990590,0.030009,0.133514,-0.002442,-0.998725,0.012751,0.048829,0.001148,3.495845,15.346811,0.188670,-1.459942,-5.598876,-0.060365,0.833960,-0.223082,8.768675,0,0.003471966,0
1785960022.383935,0.000747,0.001090,-0.001050,-0.119873,0.026123,-0.991943,0.990544,0.030083,0.133837,-0.002447,-0.998716,0.012810,0.048999,0.001155,3.504859,15.384194,0.190403,-1.466703,-5.618352,-0.060560,0.837019,-0.222460,8.768112,0,0.003462167,0
1785960022.403958,0.000348,0.001224,-0.001050,-0.118896,0.025635,-0.991943,0.990498,0.030155,0.134161,-0.002453,-0.998709,0.012794,0.049154,0.001162,3.513622,15.421661,0.192139,-1.464935,-5.636097,-0.061252,0.841286,-0.224168,8.767757,0,0.003463614,0
1785960022.423958,0.000481,0.001090,-0.000917,-0.119629,0.025635,-0.991699,0.990451,0.030228,0.134485,-0.002457,-0.998701,0.012782,0.049314,0.001168,3.522467,15.459048,0.193952,-1.463522,-5.654529,-0.061744,0.843603,-0.223836,8.767709,0,0.003463725,0
1785960022.443941,0.000747,0.000824,-0.001050,-0.118896,0.025635,-0.991455,0.990405,0.030301,0.134807,-0.002463,-0.998693,0.012774,0.049469,0.001175,3.531460,15.496285,0.195687,-1.462585,-5.672251,-0.062371,0.847528,-0.223533,8.767646,0,0.003463100,0
1785960022.464118,0.000215,0.000957,-0.001050,-0.119629,0.025635,-0.991699,0.990359,0.030372,0.135130,-0.002468,-0.998686,0.012771,0.049626,0.001182,3.540137,15.533600,0.197429,-1.462153,-5.690291,-0.063003,0.849788,-0.223468,8.767106,0,0.003470907,0
1785960022.484062,0.000481,0.001090,-0.000784,-0.119629,0.025391,-0.991699,0.990313,0.030445,0.135453,-0.002472,-0.998678,0.012735,0.049778,0.001187,3.548989,15.570986,0.199334,-1.458014,-5.707804,-0.063500,0.852836,-0.223585,8.766806,0,0.003466827,0
1785960022.504929,0.000614,0.000824,-0.001317,-0.118896,0.025879,-0.991455,0.990266,0.030518,0.135775,-0.002479,-0.998670,0.012775,0.049927,0.001197,3.557895,15.608226,0.200936,-1.462532,-5.724889,-0.064249,0.856600,-0.222342,8.766767,0,0.003503241,0
1785960022.523927,0.000614,0.001357,-0.001050,-0.119629,0.025879,-0.991943,0.990220,0.030591,0.136100,-0.002484,-0.998663,0.012802,0.050074,0.001204,3.566835,15.645763,0.202717,-1.465609,-5.741750,-0.064645,0.858693,-0.223122,8.765976,0,0.003450784,0
1785960022.544271,0.000614,0.000558,-0.001583,-0.119629,0.026123,-0.991943,0.990173,0.030664,0.136420,-0.002492,-0.998654,0.012854,0.050227,0.001217,3.575709,15.682856,0.204166,-1.471561,-5.759297,-0.065575,0.861709,-0.223374,8.765661,0,0.003468740,0
1785960022.563893,0.000348,0.001224,-0.000784,-0.119873,0.026611,-0.991699,0.990126,0.030737,0.136744,-0.002496,-0.998646,0.012960,0.050374,0.001221,3.584608,15.720292,0.206131,-1.483700,-5.776227,-0.065262,0.864326,-0.223964,8.765589,0,0.003451487,0
1785960022.583926,0.000747,0.000824,-0.000917,-0.119141,0.025879,-0.991455,0.990079,0.030811,0.137066,-0.002501,-0.998639,0.012941,0.050514,0.001227,3.593660,15.757516,0.207994,-1.481550,-5.792237,-0.065839,0.868016,-0.226674,8.765483,0,0.003455997,0
1785960022.604167,0.000481,0.000824,-0.000917,-0.119629,0.025146,-0.991943,0.990033,0.030883,0.137388,-0.002506,-0.998633,0.012831,0.050653,0.001233,3.602482,15.794757,0.209841,-1.468879,-5.808186,-0.066971,0.870254,-0.227083,8.764727,0,0.003468232,0
1785960022.623870,0.000880,0.000824,-0.001050,-0.119385,0.026367,-0.992188,0.989985,0.030958,0.137710,-0.002511,-0.998625,0.012908,0.050792,0.001240,3.611636,15.831976,0.211649,-1.477715,-5.824156,-0.067122,0.873220,-0.223622,8.764264,0,0.003454593,0
1785960022.644092,0.000348,0.000291,-0.000917,-0.119141,0.025879,-0.991455,0.989939,0.031030,0.138029,-0.002516,-0.998618,0.012908,0.050930,0.001246,3.620462,15.868894,0.213511,-1.477684,-5.840076,-0.067628,0.876284,-0.225710,8.764668,0,0.003466375,0
1785960022.664022,0.000880,0.000824,-0.001450,-0.119385,0.025391,-0.991455,0.989891,0.031104,0.138351,-0.002524,-0.998612,0.012840,0.051062,0.001257,3.629465,15.906147,0.215069,-1.469786,-5.855226,-0.069114,0.878652,-0.226073,8.764405,0,0.003462827,0
1785960022.684082,0.000747,0.001224,-0.000784,-0.118896,0.025635,-0.992188,0.989844,0.031178,0.138675,-0.002528,-0.998606,0.012822,0.051184,0.001262,3.638540,15.943597,0.217053,-1.467743,-5.869217,-0.069590,0.881638,-0.224515,8.763450,0,0.003465688,0
1785960022.704004,0.000614,0.001090,-0.001183,-0.119141,0.026123,-0.991455,0.989796,0.031251,0.138998,-0.002534,-0.998599,0.012877,0.051310,0.001271,3.647516,15.980976,0.218812,-1.473977,-5.883700,-0.070087,0.883807,-0.223692,8.763943,0,0.003461986,0
1785960022.723993,0.000880,0.000691,-0.001317,-0.119873,0.026123,-0.992920,0.989749,0.031325,0.139319,-0.002541,-0.998592,0.012909,0.051443,0.001281,3.656605,16.018132,0.220479,-1.477669,-5.898919,-0.070831,0.885619,-0.224692,8.762191,0,0.003462026,0
1785960022.743939,0.000348,0.000691,-0.000784,-0.119141,0.025879,-0.991455,0.989701,0.031397,0.139641,-0.002545,-0.998585,0.012912,0.051567,0.001286,3.665473,16.055272,0.222468,-1.477967,-5.913206,-0.071195,0.888940,-0.225672,8.763369,0,0.003460264,0
1785960022.763946,0.000614,0.000558,-0.000917,-0.119873,0.025391,-0.991943,0.989653,0.031470,0.139961,-0.002550,-0.998579,0.012846,0.051695,0.001292,3.674412,16.092352,0.224361,-1.470270,-5.927918,-0.072096,0.890667,-0.226149,8.762627,0,0.003461463,0
1785960022.784283,0.000747,0.001090,-0.001450,-0.119629,0.025391,-0.991211,0.989605,0.031543,0.140284,-0.002557,-0.998574,0.012799,0.051816,0.001303,3.683353,16.129755,0.225965,-1.464803,-5.941722,-0.073536,0.893313,-0.224793,8.763146,0,0.003476528,0
1785960022.803869,0.000481,0.000691,-0.001583,-0.120117,0.025146,-0.991699,0.989557,0.031615,0.140606,-0.002565,-0.998568,0.012732,0.051941,0.001316,3.692085,16.166941,0.227472,-1.457113,-5.956133,-0.075177,0.895260,-0.224155,8.762426,0,0.003455810,0
1785960022.824066,0.001147,0.001090,-0.000917,-0.119873,0.025146,-0.991455,0.989509,0.031690,0.140929,-0.002571,-0.998563,0.012680,0.052059,0.001322,3.701321,16.204329,0.229399,-1.451116,-5.969680,-0.076000,0.897872,-0.222718,8.762461,0,0.003466227,0
1785960022.843934,0.000081,0.001224,-0.001183,-0.119629,0.025391,-0.992188,0.989461,0.031760,0.141253,-0.002576,-0.998557,0.012681,0.052172,0.001331,3.709935,16.241797,0.231186,-1.451145,-5.982659,-0.076878,0.900402,-0.221651,8.761510,0,0.003460094,0
1785960022.863877,0.000481,0.000824,-0.001317,-0.119141,0.025391,-0.992188,0.989412,0.031832,0.141575,-0.002583,-0.998551,0.012680,0.052283,0.001341,3.718763,16.279040,0.232888,-1.450984,-5.995391,-0.077909,0.903178,-0.221570,8.761273,0,0.003458636,0
1785960022.883876,0.001147,0.001090,-0.001183,-0.119629,0.025635,-0.991943,0.989364,0.031908,0.141898,-0.002590,-0.998545,0.012707,0.052395,0.001350,3.728014,16.316426,0.234689,-1.454023,-6.008242,-0.078577,0.904805,-0.221166,8.761299,0,0.003459951,0
1785960022.903863,0.000747,0.000558,-0.001183,-0.118896,0.025879,-0.991211,0.989315,0.031981,0.142218,-0.002596,-0.998538,0.012766,0.052505,0.001359,3.737071,16.353499,0.236487,-1.460790,-6.020926,-0.079082,0.907829,-0.221510,8.761775,0,0.003460405,0
1785960022.924411,0.000880,0.001224,-0.001050,-0.119141,0.025635,-0.991211,0.989266,0.032056,0.142542,-0.002601,-0.998533,0.012776,0.052608,0.001366,3.746210,16.390954,0.238388,-1.461941,-6.032768,-0.079771,0.909608,-0.222872,8.761534,0,0.003484699,0
1785960022.943889,0.000348,0.001224,-0.001583,-0.119141,0.025635,-0.991943,0.989217,0.032127,0.142865,-0.002609,-0.998527,0.012786,0.052709,0.001379,3.754957,16.428428,0.239979,-1.463003,-6.044355,-0.081035,0.911640,-0.223163,8.760579,0,0.003457383,0
1785960022.963900,0.001280,0.000957,-0.000917,-0.119873,0.025391,-0.991455,0.989168,0.032203,0.143188,-0.002615,-0.998522,0.012755,0.052817,0.001385,3.764312,16.465731,0.241952,-1.459398,-6.056715,-0.081747,0.912922,-0.223412,8.760855,0,0.003459507,0
1785960022.983886,-0.000052,0.001224,-0.000917,-0.118896,0.025635,-0.991699,0.989119,0.032273,0.143511,-0.002619,-0.998516,0.012776,0.052912,0.001392,3.772953,16.503179,0.243953,-1.461763,-6.067683,-0.082269,0.915952,-0.222808,8.760401,0,0.003460022,0
1785960023.003882,0.000614,0.000691,-0.001183,-0.119873,0.025635,-0.991943,0.989070,0.032346,0.143832,-0.002625,-0.998511,0.012784,0.053020,0.001401,3.781908,16.540334,0.245776,-1.462643,-6.080019,-0.083091,0.916948,-0.223070,8.759941,0,0.003460860,0
1785960023.024081,0.000747,0.000824,-0.001050,-0.119629,0.025635,-0.991455,0.989021,0.032419,0.144154,-0.002631,-0.998505,0.012792,0.053123,0.001409,3.790970,16.577559,0.247691,-1.463467,-6.091829,-0.083782,0.919264,-0.223190,8.760206,0,0.003470130,0
1785960023.043919,0.000614,0.000691,-0.001317,-0.119141,0.025879,-0.991455,0.988971,0.032492,0.144475,-0.002637,-0.998499,0.012832,0.053222,0.001419,3.799946,16.614711,0.249458,-1.468035,-6.103214,-0.084579,0.921793,-0.223104,8.759985,0,0.003461746,0
1785960023.063871,0.000348,0.000824,-0.001450,-0.119385,0.026123,-0.991211,0.988922,0.032564,0.144796,-0.002645,-0.998493,0.012896,0.053321,0.001431,3.808767,16.651940,0.251162,-1.475376,-6.114605,-0.085402,0.923461,-0.223679,8.760003,0,0.003460264,0
1785960023.083872,0.000880,0.001090,-0.000917,-0.119873,0.025879,-0.991943,0.988872,0.032639,0.145119,-0.002650,-0.998488,0.012905,0.053418,0.001437,3.817959,16.689307,0.253192,-1.476335,-6.125750,-0.085928,0.924857,-0.225075,8.759040,0,0.003461242,0
1785960023.103945,0.000880,0.000957,-0.001183,-0.118652,0.025635,-0.991455,0.988822,0.032713,0.145441,-0.002656,-0.998483,0.012883,0.053504,0.001446,3.827109,16.726608,0.255065,-1.473833,-6.135635,-0.086990,0.928002,-0.225471,8.759318,0,0.003465072,0
1785960023.124060,0.000481,0.000691,-0.001450,-0.118652,0.025391,-0.991943,0.988773,0.032785,0.145762,-0.002663,-0.998479,0.012837,0.053590,0.001458,3.835962,16.763772,0.256768,-1.468474,-6.145537,-0.088539,0.929738,-0.225356,8.758652,0,0.003469739,0
1785960023.144146,0.000614,0.001090,-0.001183,-0.119385,0.025635,-0.992188,0.988723,0.032858,0.146085,-0.002669,-0.998475,0.012833,0.053678,0.001468,3.844953,16.801151,0.258654,-1.467916,-6.155648,-0.089504,0.930612,-0.224176,8.758259,0,0.003472024,0
1785960023.165119,0.000614,0.001224,-0.001317,-0.119629,0.025146,-0.991943,0.988672,0.032930,0.146409,-0.002676,-0.998471,0.012766,0.053764,0.001479,3.853875,16.838622,0.260459,-1.460099,-6.165542,-0.091077,0.932053,-0.224555,8.758325,0,0.003511712,0
1785960023.184375,0.000747,0.001090,-0.001583,-0.119385,0.025879,-0.991455,0.988622,0.033003,0.146732,-0.002684,-0.998466,0.012815,0.053852,0.001491,3.862900,16.876010,0.262126,-1.465684,-6.175640,-0.092090,0.934028,-0.222470,8.758661,0,0.003468128,0
1785960023.204012,0.001280,0.000824,-0.001317,-0.119629,0.025879,-0.991943,0.988572,0.033080,0.147053,-0.002691,-0.998460,0.012846,0.053942,0.001501,3.872272,16.913236,0.263947,-1.469154,-6.185964,-0.092910,0.935548,-0.223316,8.757960,0,0.003451651,0
1785960023.224102,0.000081,0.000691,-0.001317,-0.119141,0.025635,-0.991455,0.988521,0.033150,0.147374,-0.002698,-0.998456,0.012848,0.054027,0.001512,3.880947,16.950389,0.265765,-1.469350,-6.195722,-0.094031,0.937816,-0.224373,8.758234,0,0.003458538,0
1785960023.244254,0.000348,0.000824,-0.000917,-0.119873,0.025879,-0.991699,0.988471,0.033222,0.147695,-0.002702,-0.998450,0.012878,0.054116,0.001519,3.889855,16.987600,0.267836,-1.472777,-6.205959,-0.094486,0.938716,-0.224114,8.757813,0,0.003466392,0
1785960023.264116,0.000348,0.000425,-0.001050,-0.119141,0.025391,-0.991211,0.988421,0.033293,0.148015,-0.002708,-0.998446,0.012839,0.054200,0.001527,3.898709,17.024594,0.269809,-1.468293,-6.215620,-0.095526,0.941271,-0.225179,8.758089,0,0.003459958,0
1785960023.284351,0.000348,0.000691,-0.001317,-0.119141,0.025879,-0.991699,0.988370,0.033365,0.148336,-0.002714,-0.998442,0.012874,0.054281,0.001538,3.907567,17.061741,0.271653,-1.472221,-6.224997,-0.096450,0.942863,-0.223916,8.757447,0,0.003471006,0
1785960023.304229,0.000215,0.001224,-0.001183,-0.120117,0.025635,-0.991211,0.988319,0.033435,0.148659,-0.002720,-0.998437,0.012868,0.054364,0.001547,3.916339,17.099195,0.273593,-1.471519,-6.234529,-0.097440,0.943382,-0.224854,8.757755,0,0.003464081,0
1785960023.326999,-0.000052,0.000824,-0.000784,-0.119629,0.026123,-0.991455,0.988269,0.033505,0.148980,-0.002724,-0.998432,0.012932,0.054447,0.001554,3.925081,17.136392,0.275777,-1.478841,-6.244062,-0.097691,0.945544,-0.224301,8.757329,0,0.003583079,0
1785960023.344096,0.000215,0.000291,-0.001317,-0.119385,0.025391,-0.991699,0.988218,0.033576,0.149299,-0.002730,-0.998428,0.012880,0.054529,0.001563,3.933817,17.173320,0.277609,-1.472833,-6.253416,-0.098928,0.947547,-0.226222,8.756862,0,0.003429214,0
1785960023.364249,0.000215,0.001090,-0.001183,-0.119385,0.026367,-0.991699,0.988167,0.033647,0.149621,-0.002736,-0.998423,0.012971,0.054604,0.001573,3.942676,17.210679,0.279586,-1.483146,-6.262109,-0.099370,0.948974,-0.224211,8.756733,0,0.003444272,0
1785960023.384350,0.000747,0.001224,-0.001183,-0.119629,0.025391,-0.991699,0.988115,0.033721,0.149945,-0.002742,-0.998420,0.012905,0.054676,0.001582,3.951753,17.248135,0.281548,-1.475502,-6.270319,-0.100761,0.950184,-0.226834,8.756531,0,0.003453441,0
1785960023.403970,0.000747,0.000957,-0.001183,-0.119385,0.025879,-0.991211,0.988064,0.033794,0.150267,-0.002749,-0.998415,0.012923,0.054749,0.001591,3.960878,17.285427,0.283519,-1.477545,-6.278776,-0.101589,0.951881,-0.225045,8.756893,0,0.003439917,0
1785960023.424285,0.000747,0.000691,-0.001050,-0.119873,0.025146,-0.991699,0.988013,0.033867,0.150587,-0.002754,-0.998412,0.012838,0.054825,0.001599,3.969951,17.322577,0.285544,-1.467699,-6.287507,-0.102945,0.952878,-0.226118,8.756233,0,0.003459250,0
1785960023.443889,0.000081,0.000558,-0.001050,-0.118896,0.026123,-0.991455,0.987961,0.033938,0.150907,-0.002759,-0.998407,0.012912,0.054897,0.001608,3.978752,17.359628,0.287601,-1.476157,-6.295780,-0.103325,0.955370,-0.223595,8.756350,0,0.003443572,0
1785960023.465186,0.000747,0.000558,-0.001317,-0.119873,0.024658,-0.991943,0.987910,0.034010,0.151227,-0.002766,-0.998405,0.012764,0.054971,0.001619,3.987738,17.396722,0.289460,-1.459113,-6.304221,-0.105467,0.955795,-0.226348,8.755674,0,0.003504021,0
1785960023.484960,0.000747,0.000691,-0.001050,-0.119629,0.026123,-0.991455,0.987858,0.034084,0.151548,-0.002772,-0.998400,0.012852,0.055046,0.001627,3.996913,17.433850,0.291532,-1.469224,-6.312900,-0.105705,0.957456,-0.221998,8.756080,0,0.003484481,0
1785960023.504527,0.000747,0.000957,-0.001183,-0.119385,0.025879,-0.991455,0.987806,0.034158,0.151870,-0.002778,-0.998396,0.012886,0.055114,0.001636,4.006054,17.471140,0.293536,-1.473020,-6.320729,-0.106452,0.959129,-0.223957,8.755878,0,0.003460981,0
1785960023.524227,0.000880,0.000558,-0.001317,-0.119873,0.025635,-0.991699,0.987754,0.034232,0.152190,-0.002785,-0.998392,0.012876,0.055188,0.001647,4.015214,17.508212,0.295441,-1.471820,-6.329183,-0.107603,0.960049,-0.224814,8.755462,0,0.003448947,0
1785960023.544336,0.000348,0.000558,-0.001450,-0.119629,0.025879,-0.991699,0.987703,0.034303,0.152509,-0.002792,-0.998387,0.012906,0.055259,0.001659,4.024075,17.545284,0.297281,-1.475149,-6.337369,-0.108731,0.961730,-0.224458,8.755306,0,0.003457312,0
1785960023.564307,0.000348,0.000691,-0.001583,-0.119141,0.026123,-0.991211,0.987651,0.034375,0.152830,-0.002800,-0.998383,0.012962,0.055325,0.001673,4.032948,17.582431,0.299062,-1.481616,-6.344950,-0.109848,0.963587,-0.224774,8.755628,0,0.003457749,0
