timestamp,gx,gy,gz,ax,ay,az,madgwick_qw,madgwick_qx,madgwick_qy,madgwick_qz,kalman_qw,kalman_qx,kalman_qy,kalman_qz,madgwick_roll_deg,madgwick_pitch_deg,madgwick_yaw_deg,kalman_roll_deg,kalman_pitch_deg,kalman_yaw_deg,robot_accel_x,robot_accel_y,robot_accel_z,kalman_converged,kalman_P_change,convergence_counter
1785959533.462614,0.000215,0.000425,-0.001317,-0.119141,0.024902,-0.991455,1.000000,0.000069,0.000325,-0.000007,0.999903,0.013327,0.003985,-0.000007,0.007860,0.037259,-0.000752,1.527189,0.456593,0.005283,-0.119181,0.024923,8.818545,0,0.087903733,0
1785959533.467457,0.000481,0.000957,-0.001317,-0.118652,0.025635,-0.991211,1.000000,0.000141,0.000652,-0.000013,0.999456,0.032303,0.006633,-0.000011,0.016119,0.074770,-0.001498,3.702542,0.759734,0.023340,-0.196874,0.287098,8.814992,0,0.029575642,0
1785959533.469797,0.000481,0.000691,-0.001050,-0.119141,0.025879,-0.991211,0.999999,0.000213,0.000978,-0.000018,0.998337,0.057062,0.008244,-0.000012,0.024420,0.112119,-0.002087,6.542995,0.943293,0.052518,-0.249233,0.659330,8.797452,0,0.014859025,0
1785959533.475994,0.000081,0.001623,-0.001183,-0.119385,0.025879,-0.991211,0.999999,0.000283,0.001309,-0.000024,0.996071,0.088137,0.008650,-0.000016,0.032477,0.150006,-0.002746,10.114014,0.987573,0.085553,-0.280989,1.143568,8.753570,0,0.009249272,0
1785959533.477880,0.000747,0.000691,-0.001050,-0.118896,0.025391,-0.991211,0.999999,0.000356,0.001635,-0.000030,0.992107,0.125181,0.007377,-0.000017,0.040803,0.187383,-0.003324,14.383549,0.838933,0.103866,-0.287992,1.747858,8.664907,0,0.006192849,0
1785959533.479633,0.000481,0.000691,-0.001583,-0.118896,0.025391,-0.992188,0.999998,0.000427,0.001961,-0.000038,0.985777,0.168014,0.003873,-0.000019,0.048976,0.224760,-0.004202,19.345135,0.437862,0.072440,-0.262548,2.462056,8.509293,0,0.004457613,0
1785959533.492846,0.000348,0.000558,-0.001050,-0.119629,0.025879,-0.991699,0.999997,0.000499,0.002287,-0.000043,0.975649,0.219319,-0.002945,-0.000025,0.057170,0.262040,-0.004770,25.338373,-0.328581,-0.076831,-0.194710,3.275464,8.264145,0,0.003879763,0
1785959533.512851,0.000481,0.000691,-0.000784,-0.118652,0.025635,-0.991455,0.999996,0.000571,0.002613,-0.000047,0.959493,0.281327,-0.015102,-0.000031,0.065432,0.299397,-0.005180,32.689784,-1.659718,-0.490525,-0.062582,4.223971,7.874600,0,0.003773196,0
1785959533.533293,0.000481,0.001090,-0.001317,-0.119385,0.025879,-0.990967,0.999995,0.000643,0.002941,-0.000053,0.934721,0.353634,-0.035204,-0.000041,0.073717,0.336979,-0.005889,41.493605,-3.771792,-1.434174,0.164422,5.322030,7.261690,0,0.003714006,0
1785959533.552810,0.000880,0.000824,-0.001050,-0.119141,0.025635,-0.991699,0.999994,0.000717,0.003267,-0.000059,0.899202,0.432508,-0.066122,-0.000046,0.082178,0.374419,-0.006440,51.571554,-6.827155,-3.307082,0.525937,6.511178,6.340265,0,0.003629825,0
1785959533.572930,0.000481,0.000824,-0.001583,-0.119629,0.026123,-0.991943,0.999993,0.000790,0.003594,-0.000066,0.851915,0.511930,-0.110310,-0.000053,0.090517,0.411836,-0.007291,62.631827,-10.829940,-6.608333,1.046189,7.656733,5.062044,0,0.003593467,0
1785959533.593106,0.000481,0.000691,-0.001050,-0.119141,0.026123,-0.991211,0.999992,0.000863,0.003920,-0.000072,0.794648,0.583219,-0.168496,-0.000053,0.098889,0.449169,-0.007831,74.163557,-15.529056,-11.775320,1.723863,8.583013,3.438131,0,0.003568764,0
1785959533.612866,0.000481,0.000824,-0.001317,-0.119873,0.025635,-0.991211,0.999991,0.000935,0.004246,-0.000078,0.731988,0.638151,-0.238657,-0.000052,0.107080,0.486618,-0.008520,85.616767,-20.445809,-18.975216,2.506252,9.118862,1.588091,0,0.003532403,0
1785959533.632891,0.000481,0.001090,-0.000917,-0.119385,0.025391,-0.991455,0.999989,0.001006,0.004575,-0.000083,0.669362,0.672017,-0.316776,-0.000045,0.115235,0.524226,-0.008975,96.588184,-25.088346,-28.045717,3.307275,9.190574,-0.288949,0,0.003516521,0
1785959533.652802,0.000081,0.001224,-0.001183,-0.119385,0.025879,-0.991211,0.999987,0.001076,0.004903,-0.000089,0.611163,0.684275,-0.397803,-0.000038,0.123294,0.561882,-0.009575,106.826553,-29.090674,-38.539751,4.040023,8.851782,-2.010460,0,0.003499759,0
1785959533.672810,0.000614,0.000425,-0.000784,-0.119141,0.025635,-0.991943,0.999986,0.001149,0.005228,-0.000093,0.559767,0.677375,-0.477310,-0.000032,0.131608,0.599091,-0.009943,116.209474,-32.297906,-49.910208,4.650307,8.231134,-3.473526,0,0.003491274,0
1785959533.693016,0.000348,0.001090,-0.001317,-0.119629,0.025879,-0.991943,0.999984,0.001221,0.005556,-0.000099,0.515621,0.655315,-0.551994,-0.000025,0.139804,0.636674,-0.010610,124.717915,-34.694855,-61.635620,5.121949,7.465642,-4.654169,0,0.003493384,0
1785959533.712947,0.000747,0.000291,-0.001050,-0.118652,0.026611,-0.991699,0.999982,0.001296,0.005879,-0.000105,0.478366,0.622261,-0.619643,-0.000021,0.148488,0.673742,-0.011117,132.331279,-36.356393,-73.250867,5.465144,6.656419,-5.585496,0,0.003483180,0
1785959533.733768,0.000614,0.000691,-0.001050,-0.118896,0.025635,-0.991211,0.999980,0.001369,0.006205,-0.000110,0.446814,0.581751,-0.679649,-0.000014,0.156818,0.711100,-0.011621,139.125435,-37.397210,-84.499296,5.696481,5.866199,-6.311483,0,0.003513622,0
1785959533.753664,0.000614,0.000691,-0.001183,-0.119141,0.025635,-0.990723,0.999978,0.001442,0.006531,-0.000116,0.420055,0.537159,-0.731447,-0.000009,0.165134,0.748460,-0.012196,145.108517,-37.914534,-95.092545,5.838799,5.125808,-6.883710,0,0.003496931,0
1785959533.773185,0.000747,0.000691,-0.001317,-0.118652,0.026123,-0.991699,0.999975,0.001516,0.006857,-0.000122,0.397166,0.491017,-0.775346,-0.000005,0.173685,0.785785,-0.012841,150.325544,-38.015733,-104.880680,5.909422,4.453299,-7.339812,0,0.003468353,0
1785959533.793143,0.000481,0.000691,-0.001183,-0.119629,0.026123,-0.991455,0.999973,0.001589,0.007183,-0.000128,0.377089,0.445017,-0.812259,-0.000002,0.182029,0.823123,-0.013404,154.873085,-37.776740,-113.844705,5.922136,3.852472,-7.706530,0,0.003465504,0
1785959533.813039,0.000348,0.000824,-0.001583,-0.119141,0.025635,-0.991211,0.999970,0.001661,0.007510,-0.000136,0.359280,0.400365,-0.842986,-0.000001,0.190193,0.860558,-0.014192,158.803440,-37.281753,-121.967134,5.890343,3.318257,-8.011244,0,0.003460733,0
1785959533.832908,0.001147,0.000957,-0.001450,-0.119385,0.025635,-0.991455,0.999968,0.001736,0.007837,-0.000144,0.343125,0.357993,-0.868393,0.000006,0.198802,0.898073,-0.014899,162.186513,-36.579574,-129.262125,5.822935,2.847859,-8.268817,0,0.003455964,0
1785959533.852846,0.000481,0.000957,-0.001050,-0.118896,0.025635,-0.991943,0.999965,0.001808,0.008164,-0.000149,0.328266,0.318402,-0.889304,0.000008,0.207062,0.935580,-0.015371,165.080081,-35.722570,-135.769342,5.727355,2.435634,-8.491900,0,0.003455333,0
1785959533.872839,0.000614,0.001224,-0.000651,-0.118652,0.025635,-0.991699,0.999962,0.001881,0.008493,-0.000152,0.314342,0.281898,-0.906489,0.000012,0.215417,0.973236,-0.015608,167.546317,-34.743401,-141.541062,5.609187,2.076169,-8.687365,0,0.003457185,0
1785959533.893189,0.001147,0.001357,-0.001183,-0.119873,0.025391,-0.991455,0.999959,0.001955,0.008822,-0.000158,0.300949,0.248548,-0.920681,0.000018,0.223941,1.010997,-0.016146,169.648912,-33.653194,-146.646839,5.471044,1.763698,-8.862671,0,0.003473804,0
1785959533.913135,0.001013,0.001490,-0.001183,-0.118652,0.025879,-0.991943,0.999956,0.002031,0.009152,-0.000164,0.288158,0.218461,-0.932330,0.000022,0.232585,1.048791,-0.016676,171.417440,-32.501820,-151.119094,5.317908,1.493091,-9.024826,0,0.003469101,0
1785959533.932926,0.000215,0.001090,-0.000917,-0.119141,0.025635,-0.991943,0.999953,0.002102,0.009480,-0.000169,0.275670,0.191492,-0.941986,0.000019,0.240685,1.086375,-0.017050,172.905639,-31.289397,-155.029212,5.152186,1.260387,-9.172690,0,0.003458965,0
1785959533.952903,0.000215,0.000691,-0.000917,-0.119385,0.025879,-0.991455,0.999950,0.002173,0.009806,-0.000173,0.263375,0.167501,-0.950041,0.000016,0.248833,1.123719,-0.017419,174.152867,-30.029069,-158.432413,4.975643,1.061292,-9.310392,0,0.003459273,0
1785959533.972808,0.000481,0.000957,-0.001317,-0.119385,0.025879,-0.991699,0.999946,0.002245,0.010133,-0.000180,0.251237,0.146267,-0.956810,0.000015,0.257130,1.161217,-0.018011,175.193843,-28.736158,-161.385251,4.790065,0.891171,-9.440645,0,0.003456419,0
1785959533.992846,0.000747,0.000824,-0.001183,-0.119385,0.025635,-0.991943,0.999943,0.002319,0.010460,-0.000186,0.239187,0.127531,-0.962562,0.000016,0.265519,1.198651,-0.018523,176.061166,-27.417331,-163.944375,4.597163,0.746322,-9.563460,0,0.003459939,0
1785959534.012884,0.000348,0.000691,-0.000917,-0.119385,0.024658,-0.991455,0.999939,0.002388,0.010786,-0.000191,0.227177,0.111005,-0.967506,0.000015,0.273437,1.236060,-0.018882,176.782858,-26.077932,-166.164554,4.397919,0.622853,-9.678931,0,0.003462556,0
1785959534.032833,0.000880,0.000691,-0.001317,-0.118896,0.025879,-0.991943,0.999935,0.002463,0.011112,-0.000197,0.215238,0.096723,-0.971760,0.000017,0.281988,1.273398,-0.019458,177.374655,-24.728751,-168.056043,4.193623,0.520330,-9.789318,0,0.003460748,0
1785959534.052861,0.000481,0.000824,-0.001317,-0.119385,0.025635,-0.991943,0.999931,0.002535,0.011438,-0.000204,0.203249,0.084292,-0.975492,0.000016,0.290225,1.310831,-0.020030,177.862852,-23.361997,-169.680803,3.984500,0.433797,-9.892934,0,0.003462801,0
1785959534.072987,0.000081,0.000691,-0.001050,-0.119629,0.025635,-0.991455,0.999927,0.002604,0.011764,-0.000209,0.191206,0.073531,-0.978792,0.000012,0.298224,1.348189,-0.020445,178.263746,-21.981251,-171.070277,3.770538,0.361541,-9.990892,0,0.003468462,0
1785959534.093098,0.000614,0.000691,-0.001716,-0.118652,0.025879,-0.991211,0.999923,0.002678,0.012090,-0.000218,0.179223,0.064285,-0.981706,0.000012,0.306631,1.385525,-0.021234,178.590842,-20.602976,-172.250800,3.553380,0.301517,-10.083862,0,0.003472153,0
1785959534.113661,0.000747,0.000558,-0.001050,-0.118896,0.025635,-0.991211,0.999919,0.002751,0.012415,-0.000223,0.167155,0.056296,-0.984322,0.000014,0.315051,1.422798,-0.021638,178.859711,-19.212307,-173.260342,3.333248,0.251385,-10.170962,0,0.003494198,0
1785959534.133764,0.000747,0.001357,-0.000917,-0.119141,0.025391,-0.991211,0.999915,0.002824,0.012745,-0.000228,0.155038,0.049437,-0.986671,0.000017,0.323401,1.460543,-0.021959,179.079393,-17.814953,-174.118861,3.109282,0.209661,-10.252930,0,0.003491207,0
1785959534.152949,0.000215,0.000425,-0.000917,-0.118896,0.026123,-0.991211,0.999910,0.002896,0.013069,-0.000232,0.142952,0.043691,-0.988765,0.000014,0.331640,1.497712,-0.022274,179.255485,-16.420951,-174.832356,2.882486,0.176196,-10.329588,0,0.003449736,0
1785959534.172992,0.000481,0.001224,-0.001050,-0.118652,0.026123,-0.991699,0.999906,0.002970,0.013397,-0.000237,0.130859,0.038797,-0.990642,0.000014,0.340041,1.535336,-0.022656,179.399273,-15.026784,-175.435270,2.654788,0.148361,-10.400694,0,0.003455068,0
1785959534.192941,0.000880,0.000691,-0.001050,-0.119385,0.025391,-0.991699,0.999901,0.003043,0.013723,-0.000243,0.118651,0.034565,-0.992334,0.000017,0.348456,1.572701,-0.023041,179.518445,-13.620199,-175.952596,2.424189,0.124613,-10.465689,0,0.003455138,0
1785959534.213245,0.000747,0.000558,-0.001317,-0.119385,0.025146,-0.991699,0.999896,0.003116,0.014049,-0.000249,0.106387,0.030953,-0.993843,0.000019,0.356733,1.610002,-0.023575,179.616078,-12.208171,-176.391139,2.190828,0.105194,-10.525461,0,0.003470321,0
1785959534.233140,0.000081,0.000425,-0.001317,-0.119385,0.025146,-0.990967,0.999892,0.003185,0.014374,-0.000256,0.094086,0.027907,-0.995173,0.000014,0.364629,1.647227,-0.024104,179.695374,-10.793140,-176.758670,1.955159,0.089432,-10.578888,0,0.003464306,0
1785959534.252996,0.000481,0.000957,-0.001849,-0.119629,0.026123,-0.991455,0.999887,0.003258,0.014701,-0.000265,0.081748,0.025445,-0.996328,0.000014,0.372966,1.684711,-0.024925,179.760035,-9.375064,-177.054430,1.717612,0.077332,-10.627742,0,0.003458103,0
1785959534.272927,0.000348,0.000558,-0.001317,-0.118652,0.025635,-0.991455,0.999882,0.003329,0.015026,-0.000272,0.069479,0.023313,-0.997311,0.000013,0.381170,1.721978,-0.025439,179.814096,-7.965946,-177.308876,1.479471,0.066147,-10.670322,0,0.003456618,0
1785959534.293180,0.000747,0.001090,-0.001317,-0.119141,0.025635,-0.990967,0.999876,0.003403,0.015354,-0.000279,0.057117,0.021516,-0.998136,0.000016,0.389578,1.759556,-0.025947,179.860077,-6.547186,-177.522217,1.240588,0.057046,-10.706225,0,0.003469269,0
1785959534.312892,0.000880,0.001357,-0.001450,-0.119141,0.026123,-0.991943,0.999871,0.003478,0.015683,-0.000286,0.044764,0.020054,-0.998796,0.000019,0.398176,1.797260,-0.026520,179.898905,-5.130351,-177.695046,0.999672,0.049786,-10.737906,0,0.003455717,0
1785959534.333485,0.001013,0.000691,-0.000784,-0.118896,0.026123,-0.991943,0.999866,0.003554,0.016008,-0.000290,0.032375,0.018809,-0.999299,0.000023,0.406875,1.834578,-0.026709,179.932729,-3.709942,-177.841155,0.758472,0.043173,-10.762615,0,0.003483073,0
1785959534.353547,0.000747,0.000558,-0.001183,-0.118896,0.026123,-0.991943,0.999860,0.003629,0.016333,-0.000296,0.019970,0.017762,-0.999643,0.000024,0.415417,1.871820,-0.027122,179.962078,-2.288260,-177.963365,0.515974,0.037485,-10.781371,0,0.003481054,0
1785959534.373092,0.000348,0.000957,-0.000917,-0.119629,0.025635,-0.991455,0.999854,0.003700,0.016660,-0.000300,0.007506,0.016826,-0.999830,0.000022,0.423585,1.909321,-0.027380,179.988017,-0.860004,-178.071650,0.272240,0.032063,-10.793623,0,0.003457480,0
1785959534.392810,0.001013,0.001090,-0.000917,-0.118896,0.025391,-0.991211,0.999849,0.003774,0.016988,-0.000305,-0.004882,0.016009,-0.999860,0.000025,0.432115,1.946903,-0.027633,-179.988153,0.559294,-178.165352,0.028557,0.027248,-10.800102,0,0.003447104,0
1785959534.412776,0.000747,0.000824,-0.001050,-0.118896,0.026123,-0.991943,0.999843,0.003849,0.017314,-0.000310,-0.017273,0.015392,-0.999732,0.000026,0.440661,1.984296,-0.027952,-179.966533,1.979102,-178.235350,-0.214493,0.023946,-10.801477,0,0.003449826,0
1785959534.432713,0.000614,0.001090,-0.001450,-0.119385,0.025635,-0.991699,0.999837,0.003922,0.017642,-0.000318,-0.029718,0.014814,-0.999449,0.000026,0.448987,2.021872,-0.028499,-179.946501,3.405547,-178.300020,-0.457958,0.019778,-10.795853,0,0.003450641,0
1785959534.452723,0.000747,0.000691,-0.001450,-0.119141,0.025391,-0.991943,0.999831,0.003995,0.017968,-0.000325,-0.042145,0.014293,-0.999009,0.000027,0.457345,2.059228,-0.029043,-179.927653,4.830324,-178.357634,-0.701747,0.016083,-10.784623,0,0.003454384,0
1785959534.472842,0.000348,0.000691,-0.001050,-0.119629,0.025391,-0.991211,0.999824,0.004066,0.018294,-0.000330,-0.054637,0.013844,-0.998410,0.000024,0.465460,2.096586,-0.029355,-179.909996,6.263415,-178.406269,-0.945545,0.012962,-10.766373,0,0.003461845,0
1785959534.492726,0.000348,0.001490,-0.001183,-0.119141,0.026123,-0.991455,0.999818,0.004138,0.018624,-0.000336,-0.067055,0.013533,-0.997658,0.000023,0.473763,2.134362,-0.029726,-179.892446,7.688939,-178.438416,-1.189117,0.010712,-10.742917,0,0.003457459,0
1785959534.512720,0.000614,0.001224,-0.001050,-0.118408,0.025391,-0.992188,0.999811,0.004211,0.018952,-0.000342,-0.079382,0.013177,-0.996757,0.000024,0.482091,2.172012,-0.030022,-179.875888,9.105273,-178.475377,-1.430696,0.006994,-10.714001,0,0.003458820,0
1785959534.532846,0.000880,0.000558,-0.001450,-0.119385,0.026123,-0.991211,0.999805,0.004286,0.019277,-0.000349,-0.091824,0.012946,-0.995691,0.000027,0.490681,2.209256,-0.030540,-179.858355,10.536160,-178.497082,-1.671696,0.004924,-10.677591,0,0.003465521,0
1785959534.552728,0.000880,0.001490,-0.001183,-0.118652,0.025879,-0.990723,0.999798,0.004361,0.019606,-0.000355,-0.104163,0.012708,-0.994479,0.000029,0.499260,2.247037,-0.030896,-179.841575,11.956825,-178.519160,-1.912182,0.001824,-10.635346,0,0.003460141,0
1785959534.572741,0.000747,0.000824,-0.001317,-0.118896,0.026611,-0.991455,0.999791,0.004437,0.019932,-0.000362,-0.116505,0.012568,-0.993111,0.000030,0.507911,2.284402,-0.031320,-179.824021,13.379787,-178.529266,-2.151119,-0.000122,-10.588613,0,0.003461642,0
1785959534.592733,0.000880,0.001090,-0.001317,-0.118408,0.025391,-0.991699,0.999784,0.004511,0.020260,-0.000368,-0.128769,0.012301,-0.991598,0.000032,0.516392,2.321975,-0.031748,-179.808510,14.795686,-178.553729,-2.388278,-0.004150,-10.535435,0,0.003461917,0
1785959534.612729,0.000747,0.001224,-0.001317,-0.119873,0.025635,-0.991455,0.999777,0.004584,0.020589,-0.000375,-0.141157,0.012091,-0.989913,0.000033,0.524782,2.359626,-0.032170,-179.792442,16.228367,-178.570806,-2.624847,-0.006272,-10.476189,0,0.003462285,0
1785959534.632896,0.000348,0.001090,-0.001317,-0.119385,0.025391,-0.991211,0.999770,0.004655,0.020917,-0.000382,-0.153479,0.011878,-0.988080,0.000030,0.532913,2.397207,-0.032589,-179.777172,17.655847,-178.587881,-2.860742,-0.008870,-10.410334,0,0.003469860,0
1785959534.653267,0.000081,0.000558,-0.001183,-0.119141,0.025635,-0.991943,0.999763,0.004726,0.021242,-0.000388,-0.165757,0.011712,-0.986097,0.000026,0.540959,2.434468,-0.032926,-179.761486,19.080937,-178.598971,-3.094394,-0.010807,-10.339811,0,0.003484271,0
1785959534.672790,0.000614,0.000824,-0.000784,-0.118896,0.024658,-0.991455,0.999756,0.004797,0.021568,-0.000392,-0.177942,0.011454,-0.983974,0.000026,0.549118,2.471922,-0.033036,-179.747470,20.498374,-178.620480,-3.325669,-0.014096,-10.262442,0,0.003458925,0
1785959534.692806,0.000614,0.001090,-0.001317,-0.119629,0.025879,-0.991455,0.999748,0.004870,0.021896,-0.000398,-0.190162,0.011364,-0.981687,0.000028,0.557496,2.509481,-0.033435,-179.729709,21.922861,-178.621235,-3.554700,-0.014824,-10.180292,0,0.003460909,0
1785959534.712753,0.000348,0.000691,-0.001050,-0.118408,0.024902,-0.990967,0.999741,0.004941,0.022222,-0.000404,-0.202221,0.011168,-0.979276,0.000026,0.565574,2.546843,-0.033685,-179.714929,23.332104,-178.634311,-3.780923,-0.018169,-10.091528,0,0.003459446,0
1785959534.732762,0.001147,0.000824,-0.000917,-0.118896,0.025635,-0.991943,0.999733,0.005017,0.022548,-0.000408,-0.214272,0.011067,-0.976711,0.000031,0.574249,2.584251,-0.033846,-179.696921,24.743910,-178.635125,-4.004096,-0.019461,-9.999678,0,0.003460949,0
1785959534.752741,0.000747,0.001090,-0.001716,-0.119873,0.025879,-0.991699,0.999725,0.005090,0.022876,-0.000417,-0.226371,0.010999,-0.973979,0.000034,0.582684,2.621813,-0.034458,-179.677914,26.165209,-178.631129,-4.225780,-0.021523,-9.900984,0,0.003460854,0
1785959534.772736,0.000880,0.001090,-0.001183,-0.119141,0.026367,-0.991211,0.999717,0.005166,0.023203,-0.000423,-0.238350,0.010973,-0.971117,0.000036,0.591349,2.659341,-0.034753,-179.657396,27.576361,-178.621188,-4.444773,-0.023386,-9.795898,0,0.003461414,0
1785959534.792726,0.000481,0.000824,-0.001050,-0.118896,0.025635,-0.991455,0.999709,0.005239,0.023529,-0.000428,-0.250247,0.010853,-0.968121,0.000034,0.599644,2.696747,-0.034974,-179.639870,28.982242,-178.622312,-4.660098,-0.026540,-9.686905,0,0.003461660,0
1785959534.812755,0.001013,0.000824,-0.001583,-0.119141,0.026123,-0.991455,0.999701,0.005314,0.023856,-0.000436,-0.262112,0.010795,-0.964977,0.000038,0.608324,2.734136,-0.035491,-179.619208,30.388681,-178.614673,-4.872319,-0.028140,-9.572855,0,0.003463492,0
1785959534.832723,0.000348,0.000957,-0.001317,-0.119385,0.025146,-0.991211,0.999693,0.005385,0.024183,-0.000443,-0.273938,0.010629,-0.961688,0.000036,0.616412,2.771646,-0.035860,-179.602781,31.795303,-178.620403,-5.081740,-0.031283,-9.453358,0,0.003462290,0
1785959534.852740,0.000481,0.000691,-0.001450,-0.119873,0.026123,-0.991455,0.999685,0.005458,0.024508,-0.000450,-0.285748,0.010587,-0.958246,0.000035,0.624756,2.808963,-0.036292,-179.581016,33.204844,-178.609038,-5.288508,-0.031911,-9.329196,0,0.003463452,0
1785959534.872741,0.001147,0.001490,-0.001183,-0.119385,0.025879,-0.991455,0.999676,0.005534,0.024838,-0.000456,-0.297434,0.010507,-0.954685,0.000040,0.633461,2.846743,-0.036563,-179.559640,34.604667,-178.601758,-5.491426,-0.034461,-9.199597,0,0.003463671,0
1785959534.892730,0.000481,0.000824,-0.000917,-0.119629,0.025391,-0.992432,0.999668,0.005606,0.025164,-0.000461,-0.309067,0.010374,-0.950984,0.000038,0.641681,2.884163,-0.036685,-179.540781,36.003461,-178.600810,-5.690699,-0.036847,-9.066798,0,0.003463317,0
1785959534.912857,0.000481,0.000558,-0.001317,-0.118408,0.025635,-0.991455,0.999659,0.005679,0.025489,-0.000468,-0.320528,0.010289,-0.947183,0.000037,0.649996,2.921410,-0.037028,-179.519316,37.387035,-178.592615,-5.884969,-0.038201,-8.927372,0,0.003468920,0
1785959534.932776,0.000481,0.001357,-0.001317,-0.119629,0.025391,-0.991211,0.999650,0.005750,0.025818,-0.000474,-0.332020,0.010183,-0.943217,0.000037,0.658205,2.959137,-0.037366,-179.497925,38.780096,-178.586162,-6.076008,-0.040232,-8.785652,0,0.003464262,0
1785959534.952732,0.000747,0.000957,-0.001183,-0.119141,0.025879,-0.991699,0.999641,0.005825,0.026145,-0.000480,-0.343382,0.010137,-0.939141,0.000038,0.666695,2.996607,-0.037617,-179.472707,40.163193,-178.570406,-6.263319,-0.041393,-8.638962,0,0.003462362,0
1785959534.972736,0.000614,0.001224,-0.001317,-0.119629,0.025879,-0.991699,0.999632,0.005898,0.026473,-0.000487,-0.354706,0.010087,-0.934923,0.000039,0.675083,3.034235,-0.037940,-179.446643,41.547866,-178.553832,-6.446567,-0.043373,-8.488441,0,0.003462938,0
1785959534.992981,0.000481,0.000824,-0.001317,-0.119629,0.026367,-0.991455,0.999623,0.005971,0.026799,-0.000494,-0.365966,0.010086,-0.930574,0.000038,0.683495,3.071611,-0.038254,-179.416701,42.930850,-178.528666,-6.625942,-0.044783,-8.333043,0,0.003473703,0
1785959535.012862,0.000747,0.001490,-0.001050,-0.119385,0.025635,-0.991455,0.999614,0.006045,0.027129,-0.000499,-0.377100,0.009990,-0.926119,0.000039,0.691930,3.109397,-0.038413,-179.390939,44.304972,-178.516036,-6.800909,-0.047734,-8.173928,0,0.003466265,0
1785959535.032997,0.000747,0.001224,-0.000784,-0.119141,0.025635,-0.991699,0.999604,0.006119,0.027457,-0.000503,-0.388128,0.009902,-0.921552,0.000040,0.700385,3.147026,-0.038415,-179.363747,45.672633,-178.500852,-6.971029,-0.049205,-8.011821,0,0.003471461,0
1785959535.052864,0.000614,0.001357,-0.001583,-0.119141,0.025635,-0.991699,0.999595,0.006192,0.027786,-0.000511,-0.399054,0.009829,-0.916875,0.000041,0.708740,3.184736,-0.038869,-179.334174,47.034548,-178.481873,-7.136624,-0.050789,-7.846271,0,0.003463980,0
1785959535.073168,0.000481,0.000957,-0.001450,-0.119873,0.025391,-0.991211,0.999585,0.006264,0.028113,-0.000518,-0.409979,0.009736,-0.912043,0.000041,0.716941,3.222233,-0.039248,-179.304457,48.403274,-178.464113,-7.298352,-0.052582,-7.676974,0,0.003476989,0
1785959535.092860,0.000614,0.001224,-0.001317,-0.118896,0.025391,-0.990723,0.999575,0.006336,0.028441,-0.000525,-0.420702,0.009657,-0.907147,0.000042,0.725265,3.259872,-0.039542,-179.272661,49.753970,-178.442954,-7.455007,-0.053938,-7.503115,0,0.003460670,0
1785959535.112901,0.000481,0.000824,-0.001050,-0.119385,0.026123,-0.991211,0.999565,0.006410,0.028767,-0.000530,-0.431374,0.009661,-0.902121,0.000041,0.733649,3.297252,-0.039673,-179.232663,51.105441,-178.405987,-7.607027,-0.054551,-7.328780,0,0.003463263,0
1785959535.132868,0.000081,0.001090,-0.001050,-0.119873,0.025635,-0.991699,0.999556,0.006480,0.029095,-0.000536,-0.441980,0.009600,-0.896973,0.000037,0.741685,3.334810,-0.039803,-179.195801,52.456255,-178.377400,-7.754886,-0.057026,-7.150905,0,0.003462073,0
1785959535.153027,0.000481,0.000824,-0.001317,-0.119385,0.025391,-0.991455,0.999545,0.006552,0.029421,-0.000542,-0.452454,0.009519,-0.891737,0.000038,0.749914,3.372223,-0.040085,-179.157731,53.797948,-178.349484,-7.897517,-0.058776,-6.968884,0,0.003469344,0
1785959535.172824,0.000348,0.001224,-0.001050,-0.119141,0.025635,-0.991699,0.999535,0.006623,0.029749,-0.000548,-0.462786,0.009474,-0.886419,0.000037,0.758134,3.409850,-0.040202,-179.114559,55.129280,-178.313044,-8.035070,-0.059743,-6.785389,0,0.003459388,0
1785959535.192992,0.000481,0.000957,-0.000917,-0.119385,0.025879,-0.991943,0.999525,0.006696,0.030076,-0.000552,-0.473043,0.009455,-0.880988,0.000037,0.766474,3.447315,-0.040237,-179.065621,56.459015,-178.268584,-8.167831,-0.060996,-6.600067,0,0.003467718,0
1785959535.213020,0.000747,0.001357,-0.001450,-0.119629,0.025391,-0.991943,0.999515,0.006769,0.030405,-0.000560,-0.483212,0.009380,-0.875453,0.000041,0.774842,3.485035,-0.040575,-179.018022,57.785455,-178.230385,-8.296022,-0.063320,-6.411795,0,0.003468027,0
1785959535.232924,0.000880,0.000691,-0.001050,-0.119141,0.026123,-0.991943,0.999504,0.006845,0.030730,-0.000565,-0.493231,0.009391,-0.869848,0.000043,0.783465,3.522334,-0.040674,-178.957999,59.100633,-178.172198,-8.418894,-0.063767,-6.220911,0,0.003462942,0
1785959535.252919,0.000481,0.000558,-0.001317,-0.118896,0.025879,-0.991699,0.999494,0.006918,0.031055,-0.000572,-0.503124,0.009366,-0.864164,0.000044,0.791814,3.559566,-0.040924,-178.897695,60.407711,-178.116408,-8.536509,-0.066004,-6.028705,0,0.003463031,0
1785959535.273157,-0.000052,0.000691,-0.001050,-0.119141,0.026123,-0.991211,0.999483,0.006988,0.031380,-0.000577,-0.512941,0.009368,-0.858373,0.000039,0.799906,3.596864,-0.041012,-178.829819,61.713450,-178.050335,-8.649467,-0.067249,-5.834856,0,0.003473443,0
1785959535.293790,0.000081,0.000957,-0.000651,-0.119141,0.025635,-0.991455,0.999472,0.007059,0.031707,-0.000580,-0.522667,0.009304,-0.852486,0.000035,0.807992,3.634332,-0.040870,-178.764131,63.015911,-177.991753,-8.757621,-0.069427,-5.639434,0,0.003498207,0
1785959535.312976,0.000348,0.001357,-0.001450,-0.119141,0.025879,-0.992432,0.999461,0.007131,0.032036,-0.000587,-0.532223,0.009278,-0.846553,0.000037,0.816250,3.672024,-0.041174,-178.686579,64.304290,-177.918561,-8.861031,-0.070399,-5.442842,0,0.003455031,0
1785959535.333183,0.000614,0.001224,-0.001317,-0.119385,0.025635,-0.991699,0.999450,0.007204,0.032364,-0.000594,-0.541703,0.009225,-0.840519,0.000040,0.824608,3.709651,-0.041402,-178.604830,65.591590,-177.843420,-8.959160,-0.072151,-5.244332,0,0.003466088,0
1785959535.353551,0.000348,0.000691,-0.001050,-0.119629,0.026367,-0.991455,0.999439,0.007277,0.032689,-0.000599,-0.551110,0.009258,-0.834381,0.000040,0.832954,3.746942,-0.041467,-178.501283,66.877984,-177.738892,-9.052781,-0.072556,-5.044244,0,0.003481319,0
1785959535.372999,0.000614,0.000957,-0.001050,-0.118896,0.026123,-0.991943,0.999428,0.007351,0.033015,-0.000605,-0.560307,0.009245,-0.828234,0.000041,0.841437,3.784388,-0.041525,-178.394758,68.144986,-177.635220,-9.140791,-0.074863,-4.843086,0,0.003453527,0
1785959535.392879,0.000215,0.001357,-0.001317,-0.119385,0.025879,-0.991699,0.999416,0.007422,0.033344,-0.000611,-0.569421,0.009206,-0.821994,0.000041,0.849615,3.822080,-0.041732,-178.280649,69.410053,-177.525883,-9.224226,-0.076675,-4.642374,0,0.003451016,0
1785959535.412866,0.000614,0.001090,-0.001050,-0.119141,0.025391,-0.991699,0.999405,0.007495,0.033672,-0.000617,-0.578404,0.009116,-0.815700,0.000043,0.857949,3.859634,-0.041788,-178.162561,70.666359,-177.416746,-9.302412,-0.078357,-4.440300,0,0.003453686,0
1785959535.432884,0.000481,0.000558,-0.001583,-0.119629,0.025391,-0.991211,0.999393,0.007567,0.033996,-0.000625,-0.587317,0.009051,-0.809306,0.000046,0.866166,3.896891,-0.042151,-178.022818,71.922550,-177.283915,-9.376370,-0.079071,-4.237425,0,0.003457036,0
1785959535.453123,0.000081,0.000824,-0.000917,-0.119385,0.025879,-0.991943,0.999381,0.007638,0.034322,-0.000629,-0.596095,0.009050,-0.802863,0.000042,0.874284,3.934273,-0.042117,-177.851059,73.169233,-177.113251,-9.445089,-0.079324,-4.034352,0,0.003468917,0
1785959535.472983,0.000481,0.000558,-0.001583,-0.119141,0.025635,-0.992188,0.999370,0.007710,0.034647,-0.000637,-0.604727,0.009018,-0.796382,0.000046,0.882568,3.971515,-0.042464,-177.659422,74.405109,-176.925646,-9.508885,-0.081197,-3.830737,0,0.003461794,0
1785959535.492839,0.000747,0.001090,-0.001183,-0.119141,0.025879,-0.991943,0.999358,0.007784,0.034974,-0.000643,-0.613233,0.009013,-0.789851,0.000048,0.891067,4.009049,-0.042569,-177.429083,75.632487,-176.696906,-9.567940,-0.082087,-3.627207,0,0.003456225,0
1785959535.512809,0.000481,0.000824,-0.001450,-0.119385,0.025391,-0.991455,0.999346,0.007856,0.035301,-0.000651,-0.621642,0.008956,-0.783250,0.000050,0.899303,4.046453,-0.042831,-177.173579,76.856029,-176.447179,-9.622523,-0.084099,-3.423420,0,0.003456848,0
1785959535.532810,0.000481,0.001090,-0.000917,-0.119629,0.025391,-0.991211,0.999333,0.007928,0.035628,-0.000655,-0.629949,0.008909,-0.776585,0.000049,0.907550,4.084008,-0.042781,-176.864853,78.074640,-176.142997,-9.672572,-0.084807,-3.219486,0,0.003458713,0
1785959535.552877,0.000348,0.000957,-0.001183,-0.118896,0.026123,-0.991699,0.999321,0.008001,0.035955,-0.000661,-0.638084,0.008954,-0.769915,0.000049,0.915877,4.121451,-0.042867,-176.455522,79.277452,-175.730758,-9.717131,-0.084985,-3.015960,0,0.003462876,0
1785959535.572891,0.001147,0.001224,-0.001317,-0.119141,0.026123,-0.991455,0.999309,0.008077,0.036282,-0.000668,-0.646116,0.008978,-0.763187,0.000055,0.924647,4.159050,-0.043022,-175.950975,80.474785,-175.225444,-9.757805,-0.087012,-2.813379,0,0.003463762,0
1785959535.593021,0.000614,0.000558,-0.001050,-0.119385,0.025879,-0.990967,0.999296,0.008151,0.036607,-0.000673,-0.654057,0.008966,-0.756392,0.000055,0.933069,4.196276,-0.043029,-175.324612,81.668390,-174.600643,-9.794112,-0.088972,-2.610397,0,0.003469403,0
1785959535.612833,0.000348,0.000691,-0.001450,-0.119385,0.025879,-0.992432,0.999284,0.008223,0.036932,-0.000681,-0.661854,0.008954,-0.749579,0.000055,0.941323,4.233582,-0.043259,-174.497870,82.849766,-173.775443,-9.825826,-0.090276,-2.409323,0,0.003460097,0
1785959535.632849,0.000747,0.000957,-0.001183,-0.118408,0.025391,-0.991211,0.999271,0.008297,0.037259,-0.000687,-0.669475,0.008890,-0.742782,0.000057,0.949767,4.271049,-0.043331,-173.400167,84.013264,-172.683483,-9.852090,-0.091938,-2.206834,0,0.003461746,0
1785959535.652804,0.001013,0.001090,-0.001583,-0.119141,0.025391,-0.991699,0.999258,0.008371,0.037586,-0.000695,-0.677017,0.008841,-0.735914,0.000062,0.958318,4.308601,-0.043629,-171.759599,85.172016,-171.047624,-9.875610,-0.092535,-2.008294,0,0.003460435,0
1785959535.672960,0.000481,0.001224,-0.001583,-0.119629,0.025391,-0.991943,0.999245,0.008443,0.037914,-0.000703,-0.684473,0.008807,-0.728985,0.000064,0.966546,4.346234,-0.043921,-169.083680,86.321703,-168.374866,-9.894796,-0.093268,-1.809312,0,0.003467970,0
1785959535.693289,0.000481,0.000558,-0.001317,-0.119873,0.025635,-0.990967,0.999232,0.008515,0.038239,-0.000710,-0.691845,0.008810,-0.721992,0.000064,0.974820,4.383474,-0.044059,-163.953237,87.453463,-163.244389,-9.909653,-0.093817,-1.609042,0,0.003481046,0
1785959535.713082,0.000481,0.000691,-0.001050,-0.118896,0.025879,-0.991699,0.999219,0.008588,0.038564,-0.000715,-0.699018,0.008834,-0.715049,0.000062,0.983190,4.420769,-0.044031,-151.327758,88.514365,-150.616870,-9.919200,-0.094812,-1.410715,0,0.003468032,0
1785959535.732929,0.000614,0.000957,-0.001317,-0.119385,0.026367,-0.991699,0.999206,0.008662,0.038891,-0.000722,-0.706093,0.008904,-0.708063,0.000063,0.991694,4.458204,-0.044142,-102.746438,89.256113,-102.030063,-9.926078,-0.095923,-1.215034,0,0.003460585,0
1785959535.753601,0.000747,0.001357,-0.001183,-0.119141,0.025391,-0.991455,0.999192,0.008736,0.039219,-0.000728,-0.713055,0.008842,-0.701053,0.000064,1.000115,4.495902,-0.044181,-36.933671,88.788983,-36.222420,-9.928308,-0.099074,-1.019829,0,0.003490099,0
1785959535.773180,0.000348,0.000824,-0.000784,-0.119385,0.025879,-0.990967,0.999179,0.008808,0.039545,-0.000732,-0.719900,0.008855,-0.694022,0.000061,1.008404,4.533273,-0.043984,-19.365528,87.782065,-18.652823,-9.927194,-0.098854,-0.825398,0,0.003465721,0
1785959535.793422,0.000614,0.001224,-0.001317,-0.119385,0.025635,-0.992188,0.999165,0.008881,0.039873,-0.000738,-0.726621,0.008833,-0.686982,0.000062,1.016778,4.570888,-0.044086,-13.004313,86.707727,-12.293312,-9.922040,-0.100513,-0.634255,0,0.003475665,0
1785959535.813288,0.000348,0.000824,-0.001317,-0.119141,0.025391,-0.991211,0.999151,0.008953,0.040199,-0.000745,-0.733213,0.008796,-0.679942,0.000062,1.024966,4.608281,-0.044191,-9.795608,85.623197,-9.087405,-9.912954,-0.101637,-0.442437,0,0.003467098,0
1785959535.833047,0.000614,0.001090,-0.000917,-0.119141,0.025391,-0.991211,0.999137,0.009026,0.040526,-0.000750,-0.739678,0.008768,-0.672904,0.000062,1.033326,4.645822,-0.044057,-7.885754,84.540298,-7.179484,-9.900545,-0.102149,-0.253681,0,0.003456090,0
1785959535.853150,0.000614,0.000824,-0.001317,-0.119385,0.025146,-0.991699,0.999123,0.009098,0.040852,-0.000756,-0.746042,0.008722,-0.665842,0.000064,1.041615,4.683225,-0.044155,-6.603017,83.459115,-5.900292,-9.884891,-0.103159,-0.067307,0,0.003462435,0
1785959535.873028,0.000614,0.001090,-0.000917,-0.119385,0.025146,-0.991699,0.999109,0.009170,0.041180,-0.000761,-0.752284,0.008690,-0.658781,0.000063,1.049924,4.720776,-0.044015,-5.698043,82.384858,-4.997466,-9.865550,-0.103516,0.118157,0,0.003457651,0
1785959535.892832,0.000348,0.001090,-0.001050,-0.119629,0.025879,-0.991699,0.999095,0.009242,0.041507,-0.000766,-0.758420,0.008752,-0.651707,0.000062,1.058195,4.758301,-0.043936,-5.074609,81.315464,-4.368408,-9.843134,-0.103387,0.301673,0,0.003450889,0
1785959535.912821,0.000348,0.000824,-0.001183,-0.118652,0.025391,-0.991211,0.999081,0.009314,0.041833,-0.000772,-0.764396,0.008744,-0.644687,0.000062,1.066411,4.795686,-0.043935,-4.560105,80.262241,-3.854035,-9.816198,-0.105850,0.484076,0,0.003453669,0
1785959535.933505,0.000614,0.000558,-0.001450,-0.119141,0.025391,-0.991455,0.999067,0.009387,0.042157,-0.000780,-0.770306,0.008738,-0.637614,0.000065,1.074748,4.832925,-0.044086,-4.148634,79.208581,-3.442774,-9.787814,-0.106797,0.662436,0,0.003485420,0
1785959535.952909,0.000081,0.001090,-0.000917,-0.119385,0.026123,-0.990723,0.999052,0.009458,0.042484,-0.000784,-0.776097,0.008820,-0.630552,0.000062,1.082926,4.870437,-0.043911,-3.848840,78.163729,-3.135366,-9.755933,-0.106925,0.841028,0,0.003454731,0
1785959535.973191,0.000481,0.000957,-0.001050,-0.119141,0.026123,-0.991455,0.999037,0.009531,0.042811,-0.000790,-0.781769,0.008874,-0.623505,0.000062,1.091336,4.907871,-0.043806,-3.591034,77.128639,-2.872476,-9.720593,-0.109129,1.016007,0,0.003469084,0
1785959535.993074,0.000747,0.001490,-0.000917,-0.118896,0.025146,-0.991455,0.999023,0.009604,0.043140,-0.000794,-0.787311,0.008801,-0.616494,0.000063,1.099746,4.945644,-0.043628,-3.327313,76.106298,-2.614002,-9.682458,-0.111871,1.189277,0,0.003462831,0
1785959536.013401,-0.000052,0.000425,-0.001050,-0.119141,0.025635,-0.991455,0.999008,0.009674,0.043464,-0.000800,-0.792770,0.008815,-0.609457,0.000061,1.107767,4.982790,-0.043526,-3.129457,75.086893,-2.414080,-9.642145,-0.111289,1.360082,0,0.003477109,0
1785959536.032901,0.000747,0.000824,-0.001450,-0.119385,0.025146,-0.991455,0.998993,0.009747,0.043790,-0.000807,-0.798115,0.008767,-0.602441,0.000065,1.116132,5.020190,-0.043652,-2.940422,74.077492,-2.228431,-9.598992,-0.112911,1.529272,0,0.003452597,0
1785959536.052880,0.000614,0.000824,-0.000917,-0.118652,0.026123,-0.991455,0.998978,0.009821,0.044115,-0.000812,-0.803320,0.008847,-0.595482,0.000065,1.124645,5.057541,-0.043450,-2.815050,73.082288,-2.095620,-9.552319,-0.112071,1.696094,0,0.003454503,0
1785959536.072914,0.000880,0.000425,-0.001317,-0.118896,0.025391,-0.992432,0.998963,0.009896,0.044439,-0.000819,-0.808430,0.008818,-0.588526,0.000069,1.133156,5.094697,-0.043487,-2.673135,72.094240,-1.955483,-9.504375,-0.115007,1.858737,0,0.003458319,0
1785959536.092880,0.000481,0.001357,-0.001183,-0.118896,0.025635,-0.991455,0.998947,0.009968,0.044767,-0.000825,-0.813435,0.008833,-0.581589,0.000070,1.141490,5.132375,-0.043429,-2.559080,71.114679,-1.839251,-9.453811,-0.115223,2.021119,0,0.003458292,0
1785959536.112849,0.000880,0.000558,-0.001050,-0.118652,0.026123,-0.991455,0.998932,0.010044,0.045092,-0.000830,-0.818331,0.008899,-0.574679,0.000072,1.150151,5.169573,-0.043290,-2.471715,70.144698,-1.745562,-9.400595,-0.115790,2.180530,0,0.003458414,0
1785959536.132808,0.000081,0.001224,-0.000917,-0.119629,0.025391,-0.991943,0.998916,0.010114,0.045420,-0.000835,-0.823159,0.008866,-0.567742,0.000069,1.158202,5.207186,-0.043075,-2.365919,69.176873,-1.641111,-9.346535,-0.118466,2.336658,0,0.003458070,0
1785959536.153064,0.000348,0.000824,-0.000917,-0.119141,0.025879,-0.991211,0.998901,0.010186,0.045745,-0.000839,-0.827878,0.008905,-0.560838,0.000067,1.166507,5.244547,-0.042850,-2.288915,68.219083,-1.559713,-9.288428,-0.118228,2.492965,0,0.003470483,0
1785959536.173128,0.000481,0.001090,-0.001183,-0.119385,0.026123,-0.991455,0.998885,0.010259,0.046072,-0.000845,-0.832504,0.008961,-0.553947,0.000069,1.174907,5.282056,-0.042767,-2.224200,67.268353,-1.489268,-9.229118,-0.119438,2.645528,0,0.003471632,0
1785959536.193236,0.000614,0.001623,-0.000784,-0.119385,0.025391,-0.991943,0.998869,0.010332,0.046402,-0.000849,-0.837026,0.008916,-0.547091,0.000068,1.183283,5.319892,-0.042454,-2.141193,66.327725,-1.408670,-9.167511,-0.121824,2.795644,0,0.003474367,0
1785959536.213155,0.000614,0.001224,-0.000917,-0.119141,0.025146,-0.991455,0.998853,0.010405,0.046730,-0.000854,-0.841442,0.008865,-0.540275,0.000069,1.191620,5.357508,-0.042220,-2.063760,65.397663,-1.334278,-9.103790,-0.122131,2.944339,0,0.003468409,0
1785959536.233411,0.000747,0.001357,-0.001450,-0.119141,0.025635,-0.991943,0.998837,0.010478,0.047058,-0.000861,-0.845763,0.008889,-0.533485,0.000074,1.200087,5.395188,-0.042277,-2.010192,64.475667,-1.277806,-9.038686,-0.121640,3.089244,0,0.003478265,0
1785959536.253173,0.000348,0.001357,-0.001317,-0.119385,0.025391,-0.991455,0.998821,0.010550,0.047387,-0.000868,-0.849993,0.008885,-0.526719,0.000075,1.208284,5.432876,-0.042257,-1.954218,63.561562,-1.220961,-8.972060,-0.123085,3.232781,0,0.003464618,0
1785959536.273966,0.000348,0.000824,-0.001450,-0.118652,0.025879,-0.991943,0.998804,0.010622,0.047712,-0.000875,-0.854119,0.008942,-0.520000,0.000078,1.216581,5.470237,-0.042304,-1.916043,62.658296,-1.176846,-8.902725,-0.123299,3.373132,0,0.003498374,0
1785959536.293501,0.000348,0.000558,-0.001317,-0.119141,0.026123,-0.991943,0.998788,0.010695,0.048036,-0.000882,-0.858159,0.009012,-0.513305,0.000079,1.224909,5.507439,-0.042271,-1.883336,61.762413,-1.136926,-8.833243,-0.124719,3.511140,0,0.003470047,0
1785959536.312770,0.000747,0.000558,-0.001183,-0.119141,0.025391,-0.991211,0.998771,0.010768,0.048361,-0.000888,-0.862095,0.008980,-0.506667,0.000081,1.233352,5.544665,-0.042167,-1.832761,60.878397,-1.087734,-8.761730,-0.127277,3.647585,0,0.003437425,0
1785959536.332722,0.000081,0.001090,-0.001050,-0.118652,0.025391,-0.991943,0.998755,0.010838,0.048688,-0.000893,-0.865921,0.008965,-0.500100,0.000079,1.241441,5.582190,-0.041973,-1.788904,60.007723,-1.043449,-8.688658,-0.127470,3.779610,0,0.003441960,0
1785959536.352809,0.000614,0.000691,-0.001583,-0.119629,0.025635,-0.991699,0.998738,0.010911,0.049013,-0.000901,-0.869700,0.008986,-0.493499,0.000083,1.249810,5.619491,-0.042084,-1.755219,59.136317,-1.006865,-8.616061,-0.127660,3.909650,0,0.003451080,0
1785959536.372752,0.000348,0.000691,-0.001050,-0.118408,0.025635,-0.992188,0.998721,0.010983,0.049338,-0.000907,-0.873350,0.009006,-0.487010,0.000083,1.258101,5.656776,-0.041879,-1.723392,58.283464,-0.971755,-8.539282,-0.128650,4.037840,0,0.003451855,0
1785959536.392823,0.000614,0.001090,-0.001183,-0.119141,0.025635,-0.991699,0.998704,0.011057,0.049665,-0.000913,-0.876941,0.009024,-0.480514,0.000084,1.266512,5.694296,-0.041743,-1.693411,57.432997,-0.938789,-8.464217,-0.129602,4.163073,0,0.003457896,0
1785959536.412865,0.000081,0.000691,-0.000917,-0.119629,0.025879,-0.992432,0.998687,0.011127,0.049989,-0.000917,-0.880464,0.009069,-0.474027,0.000081,1.274655,5.731578,-0.041451,-1.669972,56.587288,-0.909570,-8.387199,-0.130313,4.285729,0,0.003461221,0
1785959536.432970,0.000747,0.001090,-0.001050,-0.119385,0.025635,-0.991455,0.998670,0.011201,0.050316,-0.000923,-0.883899,0.009077,-0.467590,0.000083,1.283143,5.769098,-0.041228,-1.641813,55.751314,-0.879175,-8.308158,-0.131886,4.408107,0,0.003466420,0
1785959536.452803,0.000614,0.001090,-0.001317,-0.119141,0.025635,-0.991943,0.998653,0.011274,0.050643,-0.000930,-0.887240,0.009089,-0.461218,0.000086,1.291549,5.806618,-0.041152,-1.616232,54.927001,-0.851140,-8.228226,-0.132691,4.526548,0,0.003458715,0
1785959536.472809,0.000747,0.001090,-0.001317,-0.119385,0.026123,-0.990967,0.998635,0.011349,0.050970,-0.000936,-0.890513,0.009161,-0.454866,0.000089,1.300102,5.844123,-0.041064,-1.602644,54.108234,-0.829962,-8.148208,-0.132996,4.643637,0,0.003460308,0
1785959536.492783,0.000481,0.001224,-0.001317,-0.118896,0.026367,-0.991943,0.998618,0.011422,0.051297,-0.000943,-0.893688,0.009243,-0.448593,0.000091,1.308560,5.881690,-0.040962,-1.591981,53.302633,-0.810658,-8.066366,-0.134634,4.756785,0,0.003460132,0
1785959536.512968,0.000880,0.001224,-0.000917,-0.119141,0.025391,-0.991211,0.998600,0.011497,0.051625,-0.000948,-0.896799,0.009189,-0.442343,0.000091,1.317106,5.919289,-0.040642,-1.559122,52.502808,-0.780593,-7.984970,-0.137517,4.868677,0,0.003468969,0
1785959536.532812,0.000880,0.000691,-0.000917,-0.119141,0.026367,-0.992188,0.998582,0.011572,0.051950,-0.000952,-0.899830,0.009270,-0.436142,0.000091,1.325809,5.956547,-0.040307,-1.550285,51.711974,-0.762965,-7.902308,-0.136148,4.977066,0,0.003461134,0
1785959536.552849,0.000614,0.000957,-0.001050,-0.119629,0.025146,-0.991699,0.998564,0.011645,0.052276,-0.000958,-0.902800,0.009192,-0.429962,0.000092,1.334142,5.994005,-0.040062,-1.516041,50.926427,-0.733592,-7.819668,-0.139388,5.084354,0,0.003463437,0
1785959536.573027,0.000481,0.000691,-0.001050,-0.119141,0.025391,-0.991699,0.998546,0.011717,0.052601,-0.000963,-0.905688,0.009176,-0.423846,0.000092,1.342455,6.031299,-0.039809,-1.493322,50.151628,-0.710393,-7.735091,-0.138305,5.189450,0,0.003471199,0
1785959536.592939,0.000614,0.001090,-0.001317,-0.118896,0.025879,-0.991699,0.998528,0.011790,0.052928,-0.000970,-0.908493,0.009228,-0.417798,0.000094,1.350916,6.068805,-0.039690,-1.483020,49.387661,-0.693863,-7.650584,-0.138054,5.291842,0,0.003465684,0
1785959536.612855,0.000614,0.001623,-0.000518,-0.118408,0.025391,-0.991455,0.998510,0.011864,0.053257,-0.000973,-0.911213,0.009213,-0.411832,0.000091,1.359366,6.106619,-0.039104,-1.462347,48.636425,-0.672258,-7.565688,-0.139875,5.391866,0,0.003461757,0
1785959536.633082,0.000614,0.000558,-0.001050,-0.118408,0.025635,-0.991699,0.998492,0.011937,0.053581,-0.000978,-0.913872,0.009239,-0.405897,0.000092,1.367823,6.143821,-0.038830,-1.449363,47.891362,-0.655174,-7.481190,-0.139882,5.488899,0,0.003471995,0
1785959536.653198,0.000348,0.001224,-0.000917,-0.119141,0.025635,-0.991455,0.998473,0.012009,0.053909,-0.000983,-0.916480,0.009264,-0.399974,0.000091,1.376112,6.181406,-0.038467,-1.436843,47.149851,-0.638353,-7.397090,-0.140834,5.584245,0,0.003475023,0
1785959536.672880,0.000614,0.000957,-0.001050,-0.119629,0.025146,-0.992188,0.998455,0.012082,0.054235,-0.000988,-0.919026,0.009227,-0.394090,0.000092,1.384452,6.218861,-0.038189,-1.415549,46.415259,-0.618385,-7.311803,-0.142213,5.677198,0,0.003458735,0
1785959536.692971,0.000348,0.000957,-0.001317,-0.119141,0.025391,-0.991699,0.998436,0.012153,0.054561,-0.000995,-0.921498,0.009241,-0.388274,0.000094,1.392679,6.256308,-0.038053,-1.403115,45.691199,-0.602866,-7.225192,-0.141827,5.769377,0,0.003463914,0
1785959536.713026,0.000348,0.000691,-0.000784,-0.118652,0.025391,-0.991211,0.998417,0.012225,0.054886,-0.000999,-0.923898,0.009259,-0.382527,0.000092,1.400956,6.293590,-0.037607,-1.391573,44.977627,-0.587540,-7.138637,-0.142467,5.859171,0,0.003466315,0
1785959536.732979,0.000481,0.000691,-0.001317,-0.118896,0.025879,-0.991455,0.998398,0.012298,0.055211,-0.001005,-0.926239,0.009335,-0.376820,0.000095,1.409345,6.330865,-0.037455,-1.389577,44.270725,-0.577051,-7.052995,-0.142762,5.945830,0,0.003463787,0
1785959536.753196,0.000481,0.000824,-0.000917,-0.119385,0.025635,-0.991943,0.998380,0.012370,0.055536,-0.001010,-0.928531,0.009362,-0.371137,0.000095,1.417705,6.368221,-0.037071,-1.380507,43.568644,-0.563462,-6.967364,-0.144769,6.030324,0,0.003473113,0
1785959536.773136,0.000614,0.000691,-0.001317,-0.119629,0.025146,-0.991455,0.998360,0.012443,0.055861,-0.001017,-0.930767,0.009330,-0.365494,0.000098,1.426034,6.405525,-0.036924,-1.363662,42.873143,-0.547554,-6.881000,-0.146186,6.114218,0,0.003468352,0
1785959536.792869,0.000481,0.000824,-0.001183,-0.118896,0.025879,-0.991699,0.998341,0.012516,0.056187,-0.001023,-0.932925,0.009404,-0.359949,0.000100,1.434433,6.442872,-0.036676,-1.362574,42.191357,-0.537963,-6.793511,-0.145303,6.195533,0,0.003455904,0
1785959536.812882,0.000081,0.000957,-0.001183,-0.119873,0.024902,-0.991211,0.998322,0.012585,0.056513,-0.001029,-0.935045,0.009348,-0.354406,0.000100,1.442422,6.480335,-0.036443,-1.343136,41.511381,-0.521356,-6.708490,-0.148076,6.274895,0,0.003458491,0
1785959536.832878,0.000348,0.000691,-0.000917,-0.118896,0.025879,-0.990967,0.998303,0.012657,0.056838,-0.001034,-0.937091,0.009433,-0.348957,0.000100,1.450764,6.517602,-0.036033,-1.344390,40.844391,-0.512770,-6.620756,-0.146379,6.352891,0,0.003459697,0
1785959536.853192,0.000481,0.001224,-0.000784,-0.119141,0.025879,-0.991699,0.998283,0.012730,0.057165,-0.001038,-0.939087,0.009495,-0.343548,0.000098,1.459184,6.555173,-0.035534,-1.342623,40.183782,-0.503145,-6.535129,-0.148265,6.427253,0,0.003474182,0
1785959536.873295,0.000481,0.000824,-0.001317,-0.118652,0.026367,-0.990967,0.998263,0.012804,0.057490,-0.001044,-0.941023,0.009607,-0.338206,0.000102,1.467660,6.592502,-0.035333,-1.348427,39.532594,-0.496994,-6.448589,-0.149335,6.501504,0,0.003476081,0
1785959536.892884,0.000481,0.000558,-0.000917,-0.119873,0.026123,-0.991211,0.998244,0.012877,0.057814,-0.001049,-0.942924,0.009658,-0.332869,0.000101,1.476085,6.629690,-0.034908,-1.345724,38.883404,-0.487356,-6.364184,-0.151966,6.572714,0,0.003455621,0
1785959536.914142,0.000348,0.000558,-0.001317,-0.119385,0.025879,-0.992432,0.998224,0.012949,0.058138,-0.001056,-0.944773,0.009670,-0.327582,0.000105,1.484388,6.666887,-0.034711,-1.338142,38.241637,-0.476688,-6.277575,-0.153578,6.641740,0,0.003511453,0
1785959536.933099,0.000348,0.000957,-0.000784,-0.119385,0.025635,-0.991455,0.998204,0.013021,0.058464,-0.001060,-0.946560,0.009659,-0.322382,0.000103,1.492690,6.704313,-0.034199,-1.327490,37.611674,-0.464546,-6.191708,-0.154335,6.711180,0,0.003455190,0
1785959536.953307,0.000215,0.000824,-0.001450,-0.118896,0.025391,-0.991211,0.998184,0.013092,0.058789,-0.001067,-0.948293,0.009633,-0.317251,0.000107,1.500852,6.741678,-0.034070,-1.315559,36.991112,-0.453007,-6.106127,-0.154785,6.777746,0,0.003466271,0
1785959536.973178,0.000614,0.000824,-0.000917,-0.119141,0.026123,-0.991943,0.998164,0.013166,0.059115,-0.001072,-0.949978,0.009705,-0.312166,0.000107,1.509381,6.779011,-0.033617,-1.317017,36.377246,-0.445658,-6.021855,-0.153784,6.841427,0,0.003460205,0
1785959536.993014,0.000348,0.000691,-0.001183,-0.118896,0.025879,-0.991211,0.998144,0.013238,0.059439,-0.001078,-0.951613,0.009737,-0.307145,0.000109,1.517712,6.816278,-0.033317,-1.313472,35.772148,-0.437011,-5.937303,-0.155740,6.904944,0,0.003454198,0
1785959537.013576,0.000880,0.001623,-0.001183,-0.119141,0.025879,-0.991455,0.998123,0.013313,0.059768,-0.001084,-0.953208,0.009761,-0.302159,0.000113,1.526343,6.854080,-0.032999,-1.309280,35.172379,-0.428531,-5.853966,-0.156564,6.965591,0,0.003480616,0
1785959537.034208,0.000614,0.001224,-0.001450,-0.118652,0.025879,-0.990967,0.998102,0.013386,0.060096,-0.001091,-0.954756,0.009791,-0.297229,0.000118,1.534819,6.891653,-0.032832,-1.305977,34.580267,-0.420664,-5.769783,-0.157415,7.025716,0,0.003503549,0
1785959537.054641,0.000081,0.001090,-0.001050,-0.119629,0.025391,-0.991455,0.998082,0.013457,0.060422,-0.001096,-0.956276,0.009759,-0.292304,0.000117,1.542914,6.929166,-0.032444,-1.294616,33.989754,-0.409751,-5.687569,-0.158801,7.083209,0,0.003512391,0
1785959537.073340,0.000747,0.000291,-0.001183,-0.119629,0.025635,-0.991455,0.998061,0.013530,0.060745,-0.001102,-0.957741,0.009771,-0.287464,0.000119,1.551416,6.966215,-0.032136,-1.289419,33.410312,-0.401231,-5.603896,-0.158144,7.140281,0,0.003444869,0
1785959537.093933,0.000614,0.001357,-0.001583,-0.119385,0.026123,-0.991943,0.998040,0.013604,0.061073,-0.001110,-0.959163,0.009846,-0.282683,0.000125,1.559898,7.003863,-0.032026,-1.292909,32.838666,-0.395978,-5.521295,-0.158222,7.194720,0,0.003474881,0
1785959537.113060,0.000747,0.000558,-0.001317,-0.118652,0.025635,-0.991455,0.998019,0.013678,0.061397,-0.001117,-0.960530,0.009847,-0.278001,0.000128,1.568426,7.041059,-0.031776,-1.286886,32.279815,-0.387700,-5.438456,-0.160359,7.248763,0,0.003435058,0
1785959537.133004,0.000747,0.000824,-0.001050,-0.119629,0.026123,-0.991699,0.997998,0.013752,0.061722,-0.001123,-0.961870,0.009912,-0.273327,0.000129,1.577014,7.078394,-0.031357,-1.289207,31.722668,-0.381672,-5.358835,-0.160131,7.299991,0,0.003439821,0
1785959537.153358,0.000081,0.001224,-0.001317,-0.119141,0.025635,-0.991455,0.997977,0.013823,0.062049,-0.001129,-0.963167,0.009911,-0.268720,0.000131,1.585149,7.115974,-0.031086,-1.283345,31.174222,-0.373579,-5.277520,-0.162231,7.350721,0,0.003460833,0
1785959537.173066,0.000348,0.001090,-0.001450,-0.119141,0.026611,-0.991455,0.997955,0.013896,0.062375,-0.001136,-0.964425,0.010035,-0.264167,0.000134,1.593570,7.153447,-0.030872,-1.293754,30.632850,-0.370278,-5.197383,-0.161461,7.399741,0,0.003449214,0
1785959537.192897,0.000614,0.001224,-0.001183,-0.119385,0.026123,-0.990723,0.997934,0.013970,0.062702,-0.001142,-0.965649,0.010069,-0.259656,0.000136,1.602085,7.191010,-0.030506,-1.292593,30.097279,-0.363643,-5.118120,-0.164476,7.448022,0,0.003445689,0
1785959537.213024,0.000614,0.001090,-0.001050,-0.119385,0.026611,-0.991699,0.997912,0.014044,0.063029,-0.001148,-0.966837,0.010156,-0.255194,0.000136,1.610681,7.228478,-0.030051,-1.298396,29.568149,-0.358830,-5.038983,-0.164847,7.493405,0,0.003455604,0
1785959537.232972,0.000747,0.000691,-0.001450,-0.118896,0.025391,-0.991211,0.997891,0.014117,0.063353,-0.001155,-0.967986,0.010078,-0.250802,0.000141,1.619162,7.265759,-0.029847,-1.283413,29.048036,-0.349154,-4.959834,-0.167962,7.538973,0,0.003455481,0
1785959537.253047,0.000747,0.000558,-0.001183,-0.119141,0.026123,-0.991211,0.997869,0.014192,0.063677,-0.001161,-0.969104,0.010120,-0.246444,0.000143,1.627763,7.302937,-0.029474,-1.283837,28.532483,-0.343310,-4.882405,-0.165947,7.582617,0,0.003460795,0
1785959537.272993,0.000481,0.000824,-0.001050,-0.119385,0.025635,-0.991211,0.997847,0.014265,0.064002,-0.001167,-0.970191,0.010098,-0.242132,0.000143,1.636145,7.340282,-0.029025,-1.276346,28.022961,-0.335353,-4.805336,-0.167482,7.625091,0,0.003459312,0
1785959537.293422,0.000481,0.000824,-0.001317,-0.119141,0.026123,-0.991943,0.997825,0.014338,0.064327,-0.001173,-0.971243,0.010149,-0.237873,0.000145,1.644586,7.377614,-0.028713,-1.278269,27.520221,-0.330198,-4.728267,-0.166811,7.665702,0,0.003478788,0
1785959537.313434,0.000614,0.001090,-0.001317,-0.119385,0.026123,-0.991455,0.997803,0.014411,0.064654,-0.001180,-0.972266,0.010192,-0.233656,0.000148,1.653098,7.415100,-0.028392,-1.279315,27.023016,-0.324891,-4.652393,-0.167970,7.706261,0,0.003475695,0
1785959537.333132,0.000348,0.000691,-0.001583,-0.119141,0.025391,-0.991455,0.997781,0.014483,0.064978,-0.001188,-0.973254,0.010143,-0.229506,0.000153,1.661339,7.452382,-0.028240,-1.268980,26.534274,-0.317181,-4.576410,-0.169799,7.745292,0,0.003459934,0
1785959537.354401,0.001147,0.000691,-0.001050,-0.119385,0.025879,-0.991455,0.997759,0.014559,0.065302,-0.001194,-0.974221,0.010169,-0.225367,0.000155,1.670142,7.489641,-0.027765,-1.268175,26.047219,-0.311522,-4.501960,-0.168375,7.783019,0,0.003515240,0
1785959537.373243,0.000747,0.000691,-0.001183,-0.119629,0.025635,-0.991943,0.997736,0.014633,0.065627,-0.001200,-0.975152,0.010167,-0.221303,0.000155,1.678665,7.526911,-0.027368,-1.263923,25.569429,-0.305084,-4.427424,-0.169401,7.819467,0,0.003453105,0
1785959537.393009,0.000348,0.000824,-0.001183,-0.119141,0.025635,-0.991455,0.997714,0.014705,0.065952,-0.001206,-0.976050,0.010178,-0.217310,0.000156,1.686976,7.564254,-0.026961,-1.261465,25.100503,-0.299181,-4.353319,-0.169599,7.855562,0,0.003445849,0
1785959537.414660,0.000348,0.000824,-0.000917,-0.119141,0.025879,-0.991943,0.997691,0.014777,0.066277,-0.001210,-0.976926,0.010221,-0.213331,0.000156,1.695344,7.601584,-0.026390,-1.263109,24.633641,-0.294046,-4.280769,-0.169709,7.889424,0,0.003520929,0
1785959537.433092,0.000481,0.001357,-0.000651,-0.119385,0.025391,-0.991455,0.997668,0.014849,0.066605,-0.001214,-0.977769,0.010199,-0.209435,0.000152,1.703733,7.639231,-0.025660,-1.256742,24.176868,-0.286943,-4.208555,-0.171147,7.923485,0,0.003439920,0
1785959537.453359,0.000481,0.000824,-0.001050,-0.119385,0.026123,-0.991455,0.997645,0.014922,0.066930,-0.001219,-0.978588,0.010282,-0.205572,0.000152,1.712195,7.676557,-0.025152,-1.263473,23.724336,-0.283248,-4.137261,-0.170161,7.955848,0,0.003457240,0
1785959537.473044,0.000614,0.001090,-0.001317,-0.119385,0.026367,-0.991699,0.997622,0.014996,0.067256,-0.001226,-0.979379,0.010376,-0.201765,0.000156,1.720750,7.714031,-0.024782,-1.271678,23.278824,-0.280180,-4.066494,-0.171657,7.987010,0,0.003445490,0
1785959537.492958,0.000880,0.000824,-0.001050,-0.119629,0.025879,-0.991943,0.997599,0.015071,0.067581,-0.001231,-0.980147,0.010385,-0.197998,0.000157,1.729401,7.751364,-0.024268,-1.269609,22.838221,-0.274815,-3.996743,-0.174036,8.017170,0,0.003446426,0
1785959537.513149,0.000348,0.001090,-0.001317,-0.119141,0.025635,-0.991455,0.997576,0.015143,0.067907,-0.001238,-0.980889,0.010375,-0.194291,0.000160,1.737710,7.788859,-0.023900,-1.265370,22.405097,-0.269326,-3.926893,-0.174724,8.047183,0,0.003458911,0
1785959537.532946,0.000880,0.001090,-0.001183,-0.118652,0.025635,-0.992188,0.997553,0.015218,0.068234,-0.001244,-0.981602,0.010371,-0.190656,0.000163,1.746351,7.826348,-0.023447,-1.261888,21.980609,-0.264063,-3.857949,-0.174577,8.074988,0,0.003451511,0
1785959537.552976,0.000348,0.001090,-0.001050,-0.119385,0.025635,-0.992188,0.997529,0.015290,0.068560,-0.001249,-0.982298,0.010377,-0.187038,0.000163,1.754676,7.863839,-0.022915,-1.259794,21.558442,-0.258879,-3.791390,-0.174715,8.102445,0,0.003455879,0
1785959537.572910,0.001147,0.000691,-0.000917,-0.119141,0.025635,-0.991943,0.997506,0.015365,0.068884,-0.001254,-0.982970,0.010385,-0.183470,0.000164,1.763477,7.901096,-0.022306,-1.257928,21.142436,-0.253856,-3.723947,-0.174815,8.129531,0,0.003455091,0
1785959537.592995,0.000614,0.000957,-0.001450,-0.119873,0.025879,-0.991211,0.997482,0.015439,0.069210,-0.001262,-0.983626,0.010433,-0.179918,0.000169,1.771944,7.938512,-0.021993,-1.261113,20.728495,-0.250286,-3.658388,-0.174976,8.156175,0,0.003460955,0
1785959537.613050,0.000747,0.000957,-0.001183,-0.118896,0.026123,-0.991211,0.997458,0.015513,0.069535,-0.001268,-0.984255,0.010504,-0.176444,0.000171,1.780574,7.975909,-0.021512,-1.267166,20.323989,-0.247041,-3.591218,-0.175753,8.181484,0,0.003464083,0
1785959537.633014,0.000747,0.001224,-0.000917,-0.119385,0.025635,-0.991211,0.997434,0.015587,0.069862,-0.001273,-0.984865,0.010500,-0.173003,0.000171,1.789146,8.013471,-0.020878,-1.264098,19.923587,-0.241910,-3.526895,-0.177727,8.205724,0,0.003462543,0
1785959537.653036,0.000747,0.000957,-0.001050,-0.118652,0.026123,-0.991211,0.997410,0.015662,0.070188,-0.001278,-0.985451,0.010566,-0.169628,0.000172,1.797797,8.050863,-0.020307,-1.269643,19.531024,-0.238539,-3.461744,-0.177274,8.229335,0,0.003463852,0
1785959537.673197,0.000481,0.000824,-0.001317,-0.119141,0.025635,-0.991211,0.997386,0.015734,0.070513,-0.001285,-0.986022,0.010560,-0.166278,0.000176,1.806193,8.088201,-0.019899,-1.266643,19.141590,-0.233981,-3.398939,-0.179222,8.252006,0,0.003470781,0
1785959537.693397,0.000481,0.000824,-0.001050,-0.119141,0.026123,-0.990967,0.997362,0.015808,0.070838,-0.001290,-0.986574,0.010624,-0.162966,0.000176,1.814679,8.125519,-0.019322,-1.272080,18.756823,-0.230600,-3.336025,-0.178719,8.274334,0,0.003477672,0
1785959537.712976,0.000081,0.000691,-0.001050,-0.119629,0.026611,-0.991455,0.997338,0.015879,0.071162,-0.001295,-0.987109,0.010738,-0.159689,0.000176,1.822989,8.162748,-0.018735,-1.283391,18.376347,-0.228089,-3.274177,-0.179656,8.295222,0,0.003456388,0
1785959537.732987,0.000747,0.000558,-0.001050,-0.119141,0.025391,-0.990723,0.997313,0.015953,0.071485,-0.001301,-0.987625,0.010671,-0.156471,0.000178,1.831529,8.199935,-0.018165,-1.273307,18.002978,-0.222355,-3.211913,-0.183051,8.316662,0,0.003458754,0
1785959537.753266,0.000880,0.000957,-0.001183,-0.119873,0.025635,-0.991211,0.997289,0.016027,0.071811,-0.001307,-0.988127,0.010658,-0.153272,0.000181,1.840148,8.237349,-0.017659,-1.269758,17.631852,-0.217926,-3.151990,-0.181593,8.336137,0,0.003471961,0
1785959537.773262,0.000081,0.001224,-0.001183,-0.119141,0.025391,-0.991211,0.997264,0.016098,0.072138,-0.001313,-0.988607,0.010633,-0.150143,0.000183,1.848300,8.274918,-0.017143,-1.264778,17.269141,-0.213248,-3.090809,-0.181838,8.355571,0,0.003469829,0
1785959537.792958,0.000614,0.000957,-0.000917,-0.119385,0.025879,-0.992188,0.997239,0.016171,0.072463,-0.001318,-0.989071,0.010675,-0.147053,0.000183,1.856839,8.312317,-0.016464,-1.267942,16.911098,-0.209656,-3.031759,-0.180833,8.373251,0,0.003455504,0
1785959537.813118,0.000481,0.000291,-0.000917,-0.119385,0.025635,-0.991455,0.997214,0.016244,0.072785,-0.001322,-0.989521,0.010685,-0.143993,0.000183,1.865268,8.349340,-0.015797,-1.267244,16.556670,-0.205537,-2.973042,-0.182015,8.392021,0,0.003464393,0
1785959537.833020,0.000747,0.000957,-0.001317,-0.119141,0.026123,-0.991455,0.997189,0.016318,0.073111,-0.001329,-0.989953,0.010759,-0.140988,0.000187,1.873893,8.386736,-0.015332,-1.274246,16.208797,-0.203081,-2.914805,-0.181771,8.409457,0,0.003460167,0
1785959537.853077,0.000747,0.000691,-0.001450,-0.119629,0.025635,-0.991943,0.997164,0.016392,0.073435,-0.001337,-0.990373,0.010754,-0.138008,0.000192,1.882427,8.423999,-0.014956,-1.272040,15.864004,-0.199480,-2.858101,-0.183787,8.425754,0,0.003463551,0
1785959537.873564,0.000481,0.001224,-0.001050,-0.119141,0.026367,-0.991455,0.997139,0.016465,0.073762,-0.001342,-0.990776,0.010853,-0.135078,0.000194,1.890959,8.461535,-0.014316,-1.282099,15.525007,-0.197171,-2.800983,-0.183080,8.442523,0,0.003484488,0
1785959537.893085,0.000747,0.000691,-0.001050,-0.119629,0.025391,-0.991455,0.997114,0.016539,0.074086,-0.001347,-0.991167,0.010805,-0.132179,0.000195,1.899497,8.498796,-0.013702,-1.274783,15.189911,-0.192515,-2.745485,-0.186015,8.458216,0,0.003459047,0
1785959537.913082,0.000481,0.000691,-0.001183,-0.118652,0.025635,-0.991455,0.997088,0.016611,0.074410,-0.001353,-0.991540,0.010811,-0.129349,0.000197,1.907934,8.536047,-0.013150,-1.274076,14.862793,-0.189003,-2.689186,-0.184957,8.473433,0,0.003460138,0
1785959537.933880,0.000614,0.001490,-0.000651,-0.119141,0.026123,-0.991455,0.997063,0.016685,0.074738,-0.001357,-0.991902,0.010882,-0.126537,0.000195,1.916548,8.573733,-0.012261,-1.280854,14.537873,-0.185954,-2.635746,-0.184618,8.487911,0,0.003495206,0
1785959537.953079,0.000481,0.000691,-0.001317,-0.118652,0.026611,-0.991943,0.997037,0.016759,0.075062,-0.001363,-0.992248,0.011001,-0.123784,0.000199,1.925107,8.610956,-0.011756,-1.293364,14.219969,-0.184302,-2.581277,-0.185628,8.501556,0,0.003453327,0
1785959537.973116,0.000348,0.001090,-0.001317,-0.118652,0.025879,-0.992188,0.997011,0.016831,0.075388,-0.001370,-0.992582,0.010999,-0.121076,0.000203,1.933495,8.648430,-0.011252,-1.291814,13.907314,-0.180973,-2.528633,-0.188761,8.514758,0,0.003457579,0
1785959537.993666,0.001147,0.001090,-0.001583,-0.119385,0.025391,-0.991699,0.996985,0.016907,0.075714,-0.001378,-0.992909,0.010937,-0.118375,0.000210,1.942231,8.685927,-0.010910,-1.283323,13.595580,-0.177275,-2.477442,-0.189141,8.528261,0,0.003482630,0
1785959538.013216,0.000081,0.000291,-0.001183,-0.118164,0.026123,-0.992188,0.996960,0.016978,0.076036,-0.001384,-0.993218,0.011000,-0.115746,0.000212,1.950525,8.722929,-0.010326,-1.289450,13.292207,-0.174737,-2.424221,-0.187467,8.540523,0,0.003458860,0
1785959538.033170,0.000747,0.000558,-0.001450,-0.119385,0.026367,-0.991455,0.996934,0.017053,0.076359,-0.001392,-0.993520,0.011078,-0.113118,0.000218,1.959176,8.760089,-0.009886,-1.297297,12.989026,-0.172775,-2.374973,-0.188399,8.553298,0,0.003458218,0
1785959538.053222,0.000614,0.001090,-0.000917,-0.119385,0.025879,-0.992188,0.996907,0.017126,0.076685,-0.001396,-0.993811,0.011076,-0.110535,0.000218,1.967735,8.797557,-0.009131,-1.295828,12.691175,-0.169200,-2.324528,-0.190462,8.564310,0,0.003461879,0
1785959538.077718,0.000880,0.001090,-0.000917,-0.119141,0.026123,-0.991211,0.996881,0.017202,0.077011,-0.001401,-0.994096,0.011113,-0.107930,0.000220,1.976488,8.835015,-0.008364,-1.298986,12.390884,-0.166379,-2.274608,-0.190148,8.576615,0,0.003656346,0
1785959538.094190,0.000481,0.000558,-0.001450,-0.119141,0.026123,-0.991455,0.996855,0.017275,0.077334,-0.001409,-0.994365,0.011148,-0.105418,0.000223,1.984965,8.872179,-0.007911,-1.302049,12.101444,-0.163674,-2.224251,-0.191060,8.587555,0,0.003456378,0
1785959538.113523,0.000614,0.001357,-0.000784,-0.119141,0.026123,-0.991455,0.996828,0.017349,0.077661,-0.001413,-0.994623,0.011178,-0.102959,0.000221,1.993582,8.909787,-0.007051,-1.304416,11.818100,-0.160515,-2.175987,-0.191755,8.598019,0,0.003429869,0
1785959538.133225,0.000348,0.001224,-0.001050,-0.119141,0.025635,-0.991455,0.996801,0.017421,0.077988,-0.001418,-0.994871,0.011146,-0.100536,0.000223,2.001959,8.947338,-0.006352,-1.299648,11.539028,-0.156969,-2.128506,-0.192926,8.608065,0,0.003425632,0
1785959538.153214,0.000348,0.000824,-0.001183,-0.118896,0.025879,-0.991455,0.996774,0.017493,0.078313,-0.001424,-0.995109,0.011161,-0.098146,0.000225,2.010363,8.984653,-0.005726,-1.300368,11.263803,-0.154201,-2.081396,-0.192106,8.617769,0,0.003434616,0
1785959538.173114,0.000481,0.001224,-0.001050,-0.119141,0.025635,-0.991211,0.996747,0.017565,0.078639,-0.001429,-0.995340,0.011146,-0.095786,0.000227,2.018819,9.022203,-0.005015,-1.297657,10.992105,-0.151009,-2.035523,-0.192651,8.627309,0,0.003437575,0
1785959538.193190,0.000747,0.000691,-0.001317,-0.118652,0.025635,-0.992188,0.996720,0.017639,0.078963,-0.001436,-0.995560,0.011137,-0.093467,0.000232,2.027417,9.059450,-0.004462,-1.295772,10.725187,-0.148299,-1.989288,-0.192356,8.635341,0,0.003447322,0
1785959538.213234,0.000614,0.001224,-0.001183,-0.119141,0.025635,-0.991211,0.996693,0.017713,0.079290,-0.001442,-0.995773,0.011140,-0.091168,0.000235,2.035940,9.097001,-0.003818,-1.295220,10.460640,-0.145582,-1.944997,-0.192254,8.644912,0,0.003453336,0
1785959538.243508,0.000348,0.000824,-0.001050,-0.118652,0.025146,-0.991455,0.996666,0.017784,0.079615,-0.001447,-0.995989,0.011084,-0.088789,0.000241,2.044274,9.134332,-0.003106,-1.287895,10.186972,-0.142538,-1.899989,-0.192868,8.652995,0,0.003905473,0
1785959538.253240,0.000215,0.000824,-0.001317,-0.118652,0.025879,-0.991455,0.996639,0.017856,0.079939,-0.001454,-0.996181,0.011148,-0.086592,0.000238,2.052603,9.171647,-0.002528,-1.294427,9.934166,-0.139936,-1.853732,-0.191138,8.661446,0,0.003348389,0
1785959538.273209,0.000880,0.000824,-0.001050,-0.119629,0.025391,-0.991455,0.996611,0.017930,0.080264,-0.001460,-0.996370,0.011131,-0.084398,0.000241,2.061248,9.208975,-0.001805,-1.291679,9.681915,-0.137075,-1.812169,-0.192762,8.668971,0,0.003375221,0
1785959538.292880,0.000481,0.000425,-0.000917,-0.119629,0.026123,-0.991211,0.996584,0.018003,0.080586,-0.001464,-0.996550,0.011220,-0.082226,0.000241,2.069771,9.246050,-0.000992,-1.301233,9.432184,-0.135070,-1.769534,-0.191804,8.676593,0,0.003382994,0
1785959538.312854,0.000614,0.000558,-0.001317,-0.118652,0.026123,-0.991943,0.996556,0.018077,0.080909,-0.001471,-0.996722,0.011288,-0.080108,0.000246,2.078363,9.283204,-0.000398,-1.308419,9.188682,-0.133389,-1.726417,-0.193563,8.682918,0,0.003401695,0
1785959538.334266,0.000081,0.000824,-0.000917,-0.118408,0.025391,-0.991455,0.996529,0.018148,0.081234,-0.001476,-0.996889,0.011255,-0.078010,0.000247,2.086603,9.320521,0.000425,-1.303891,8.947532,-0.130364,-1.685095,-0.195753,8.690109,0,0.003477001,0
1785959538.352972,0.000348,0.000425,-0.001183,-0.119629,0.025146,-0.991943,0.996501,0.018219,0.081557,-0.001482,-0.997051,0.011201,-0.075926,0.000249,2.094905,9.357629,0.001080,-1.296989,8.707943,-0.127364,-1.645449,-0.195337,8.696161,0,0.003418767,0
1785959538.373684,0.000348,0.001357,-0.000784,-0.118896,0.025635,-0.991211,0.996473,0.018291,0.081884,-0.001486,-0.997204,0.011233,-0.073883,0.000249,2.103332,9.395243,0.002006,-1.300033,8.473248,-0.124877,-1.604377,-0.193807,8.703184,0,0.003460193,0
1785959538.393384,0.000481,0.000957,-0.001583,-0.118652,0.026123,-0.990967,0.996445,0.018364,0.082209,-0.001494,-0.997350,0.011324,-0.071872,0.000256,2.111828,9.432630,0.002476,-1.309971,8.242194,-0.123766,-1.564307,-0.193969,8.709432,0,0.003448338,0
1785959538.413201,0.000481,0.001090,-0.001050,-0.119141,0.025635,-0.991699,0.996417,0.018437,0.082535,-0.001499,-0.997491,0.011329,-0.069885,0.000258,2.120301,9.470098,0.003252,-1.309921,8.013949,-0.121362,-1.525685,-0.196255,8.714407,0,0.003444433,0
1785959538.433231,0.000747,0.000824,-0.000917,-0.119141,0.025146,-0.990479,0.996388,0.018510,0.082859,-0.001504,-0.997627,0.011277,-0.067921,0.000259,2.128878,9.507424,0.004094,-1.303373,7.788340,-0.118434,-1.486949,-0.196804,8.721161,0,0.003450558,0
1785959538.452946,0.000481,0.000691,-0.001050,-0.118896,0.025879,-0.991455,0.996360,0.018583,0.083183,-0.001509,-0.997756,0.011339,-0.065992,0.000261,2.137390,9.544654,0.004879,-1.309873,7.566767,-0.116561,-1.448415,-0.195138,8.725522,0,0.003441763,0
1785959538.473131,0.000481,0.000425,-0.001050,-0.119141,0.025391,-0.991699,0.996332,0.018655,0.083505,-0.001515,-0.997880,0.011324,-0.064082,0.000263,2.145835,9.581746,0.005652,-1.307671,7.347418,-0.114159,-1.411013,-0.196843,8.730326,0,0.003455135,0
1785959538.493073,0.000348,0.000691,-0.000917,-0.119385,0.025635,-0.991211,0.996303,0.018727,0.083829,-0.001519,-0.997999,0.011352,-0.062194,0.000264,2.154242,9.618982,0.006518,-1.310373,7.130677,-0.111938,-1.374070,-0.196358,8.735689,0,0.003454875,0
1785959538.513049,0.000481,0.000824,-0.000917,-0.119141,0.025391,-0.991699,0.996274,0.018800,0.084154,-0.001524,-0.998113,0.011344,-0.060342,0.000265,2.162704,9.656299,0.007388,-1.308953,6.918140,-0.109531,-1.337038,-0.197142,8.739863,0,0.003456080,0
1785959538.534613,0.000747,0.000824,-0.001450,-0.119141,0.025879,-0.991455,0.996245,0.018874,0.084478,-0.001532,-0.998222,0.011405,-0.058500,0.000272,2.171330,9.693613,0.007965,-1.315529,6.706619,-0.108353,-1.300931,-0.196465,8.744563,0,0.003525007,0
1785959538.552850,0.001013,0.001090,-0.000917,-0.119141,0.025879,-0.991455,0.996216,0.018949,0.084804,-0.001537,-0.998325,0.011452,-0.056707,0.000273,2.180162,9.731068,0.008864,-1.320446,6.500844,-0.106323,-1.264995,-0.197641,8.748831,0,0.003434636,0
1785959538.573059,0.000348,0.000691,-0.001183,-0.118896,0.025391,-0.991455,0.996187,0.019021,0.085127,-0.001543,-0.998424,0.011433,-0.054941,0.000277,2.188534,9.768312,0.009595,-1.317823,6.298154,-0.104266,-1.229693,-0.199177,8.752866,0,0.003450779,0
1785959538.592971,0.001013,0.000824,-0.000651,-0.118652,0.026123,-0.991455,0.996158,0.019097,0.085452,-0.001546,-0.998517,0.011513,-0.053205,0.000276,2.197440,9.805598,0.010660,-1.326635,6.098903,-0.102302,-1.194988,-0.197947,8.756745,0,0.003450290,0
1785959538.613514,0.000215,0.000158,-0.000917,-0.119141,0.025391,-0.991699,0.996129,0.019168,0.085773,-0.001551,-0.998608,0.011486,-0.051474,0.000277,2.205756,9.842531,0.011545,-1.323111,5.900355,-0.099963,-1.161431,-0.200422,8.760159,0,0.003476858,0
1785959538.632942,0.000348,0.000691,-0.001450,-0.119141,0.026123,-0.991699,0.996100,0.019240,0.086096,-0.001558,-0.998693,0.011564,-0.049778,0.000283,2.214191,9.879761,0.012152,-1.331770,5.705699,-0.098835,-1.127719,-0.199158,8.763716,0,0.003449316,0
1785959538.652911,0.000747,0.001224,-0.001450,-0.118652,0.025391,-0.992188,0.996070,0.019314,0.086423,-0.001566,-0.998775,0.011528,-0.048125,0.000290,2.222780,9.917312,0.012764,-1.327259,5.516149,-0.097172,-1.094180,-0.201364,8.766554,0,0.003451623,0
1785959538.672975,0.000348,0.000957,-0.001317,-0.118408,0.025635,-0.991211,0.996040,0.019386,0.086748,-0.001572,-0.998852,0.011544,-0.046495,0.000295,2.231192,9.954700,0.013460,-1.328787,5.329126,-0.095660,-1.061587,-0.200499,8.770724,0,0.003457426,0
1785959538.692963,0.000348,0.000691,-0.000784,-0.119385,0.025879,-0.990723,0.996011,0.019458,0.087071,-0.001576,-0.998926,0.011591,-0.044864,0.000295,2.239660,9.991921,0.014465,-1.333853,5.141973,-0.093692,-1.030636,-0.200575,8.774237,0,0.003458580,0
1785959538.713662,0.000348,0.000691,-0.000917,-0.119141,0.025635,-0.991455,0.995981,0.019530,0.087395,-0.001581,-0.998997,0.011597,-0.043258,0.000296,2.248093,10.029150,0.015394,-1.334141,4.957798,-0.091732,-0.998486,-0.201750,8.776408,0,0.003489775,0
1785959538.732976,0.000614,0.000824,-0.001317,-0.119629,0.025391,-0.991455,0.995951,0.019603,0.087719,-0.001588,-0.999064,0.011571,-0.041675,0.000301,2.256597,10.066473,0.016093,-1.330926,4.776243,-0.090040,-0.967577,-0.202067,8.779182,0,0.003454145,0
1785959538.752942,0.000747,0.000824,-0.000917,-0.119141,0.025879,-0.991699,0.995921,0.019677,0.088044,-0.001593,-0.999127,0.011619,-0.040124,0.000303,2.265293,10.103771,0.017042,-1.336127,4.598402,-0.088349,-0.936123,-0.201056,8.781588,0,0.003455165,0
1785959538.773009,0.000081,0.001224,-0.000651,-0.118896,0.025635,-0.991699,0.995891,0.019748,0.088370,-0.001596,-0.999187,0.011632,-0.038605,0.000301,2.273615,10.141297,0.018157,-1.337298,4.424243,-0.086222,-0.905611,-0.202370,8.784046,0,0.003460234,0
1785959538.793071,0.000747,0.000558,-0.000917,-0.118652,0.025635,-0.991211,0.995860,0.019822,0.088693,-0.001601,-0.999243,0.011643,-0.037105,0.000303,2.282296,10.178445,0.019109,-1.338273,4.252247,-0.084444,-0.875509,-0.202498,8.786889,0,0.003463825,0
1785959538.813130,0.000614,0.000824,-0.000917,-0.119385,0.025391,-0.991455,0.995830,0.019895,0.089017,-0.001605,-0.999298,0.011623,-0.035617,0.000305,2.290855,10.215756,0.020063,-1.335672,4.081563,-0.082554,-0.846929,-0.202986,8.788863,0,0.003466411,0
1785959538.833040,0.000880,0.000824,-0.000917,-0.119629,0.025146,-0.991943,0.995800,0.019969,0.089341,-0.001610,-0.999350,0.011577,-0.034148,0.000307,2.299532,10.253074,0.021017,-1.330201,3.913186,-0.080610,-0.818026,-0.202784,8.790510,0,0.003461974,0
1785959538.853046,0.000081,0.000425,-0.001317,-0.119629,0.026123,-0.991211,0.995769,0.020040,0.089663,-0.001617,-0.999397,0.011682,-0.032692,0.000312,2.307829,10.290146,0.021756,-1.342058,3.746244,-0.079688,-0.789188,-0.201080,8.793275,0,0.003462753,0
1785959538.873009,0.000081,0.000425,-0.001050,-0.118896,0.025146,-0.991455,0.995739,0.020110,0.089986,-0.001622,-0.999443,0.011637,-0.031277,0.000315,2.316055,10.327234,0.022638,-1.336658,3.583973,-0.077949,-0.759937,-0.204122,8.794893,0,0.003461511,0
1785959538.892976,0.000348,0.000957,-0.001183,-0.119385,0.024902,-0.991699,0.995708,0.020181,0.090311,-0.001628,-0.999486,0.011574,-0.029880,0.000319,2.324382,10.364638,0.023453,-1.329189,3.423795,-0.076356,-0.732802,-0.203434,8.796441,0,0.003460750,0
1785959538.912907,0.000614,0.001623,-0.001450,-0.119141,0.025879,-0.991943,0.995676,0.020255,0.090639,-0.001636,-0.999525,0.011656,-0.028512,0.000327,2.332961,10.402402,0.024157,-1.338405,3.266973,-0.075613,-0.705311,-0.201172,8.797896,0,0.003458634,0
1785959538.933839,0.000348,0.000957,-0.001450,-0.119141,0.024902,-0.991455,0.995645,0.020326,0.090964,-0.001643,-0.999564,0.011596,-0.027153,0.000334,2.341269,10.439811,0.024829,-1.331387,3.111263,-0.074472,-0.678386,-0.203808,8.799921,0,0.003499790,0
1785959538.952973,0.000348,0.001090,-0.000917,-0.118896,0.025635,-0.991211,0.995614,0.020398,0.091289,-0.001648,-0.999598,0.011653,-0.025825,0.000336,2.349730,10.477262,0.025838,-1.337735,2.959009,-0.073017,-0.651534,-0.201909,8.801675,0,0.003454026,0
1785959538.973017,0.000747,0.000691,-0.001317,-0.118896,0.025635,-0.991943,0.995583,0.020471,0.091613,-0.001654,-0.999631,0.011693,-0.024514,0.000341,2.358377,10.514494,0.026610,-1.342138,2.808768,-0.072034,-0.625432,-0.202949,8.802304,0,0.003458384,0
1785959538.993324,0.000081,0.000691,-0.001450,-0.119141,0.025879,-0.991455,0.995552,0.020542,0.091936,-0.001662,-0.999661,0.011763,-0.023215,0.000348,2.366653,10.551723,0.027314,-1.350023,2.659798,-0.071283,-0.599986,-0.203619,8.804065,0,0.003472880,0
1785959539.014107,0.000215,0.001224,-0.000917,-0.119141,0.026123,-0.991455,0.995520,0.020614,0.092262,-0.001666,-0.999689,0.011848,-0.021935,0.000350,2.375095,10.589238,0.028353,-1.359631,2.513074,-0.069997,-0.574623,-0.204718,8.805246,0,0.003504186,0
1785959539.032961,0.000614,0.000691,-0.001317,-0.118896,0.025391,-0.991211,0.995488,0.020687,0.092586,-0.001673,-0.999716,0.011818,-0.020684,0.000355,2.383640,10.626475,0.029136,-1.355944,2.369760,-0.068793,-0.549160,-0.207053,8.806592,0,0.003445364,0
1785959539.053214,0.000614,0.000691,-0.001050,-0.119629,0.025635,-0.991943,0.995457,0.020760,0.092909,-0.001678,-0.999741,0.011827,-0.019438,0.000359,2.392227,10.663702,0.030083,-1.356829,2.226941,-0.067490,-0.525387,-0.206192,8.806920,0,0.003460760,0
1785959539.073078,0.000215,0.000691,-0.000917,-0.119385,0.025879,-0.991455,0.995425,0.020831,0.093233,-0.001683,-0.999764,0.011873,-0.018214,0.000360,2.400635,10.700918,0.031119,-1.362042,2.086643,-0.066119,-0.500708,-0.206201,8.808383,0,0.003455777,0
1785959539.092969,0.000215,0.001357,-0.001317,-0.118896,0.025635,-0.990967,0.995393,0.020903,0.093559,-0.001690,-0.999784,0.011882,-0.017024,0.000366,2.408989,10.738528,0.031942,-1.362884,1.950231,-0.065176,-0.476343,-0.207361,8.809750,0,0.003453215,0
1785959539.112921,0.000481,0.000957,-0.001050,-0.119873,0.025635,-0.991211,0.995361,0.020975,0.093884,-0.001695,-0.999804,0.011887,-0.015831,0.000369,2.417499,10.775908,0.032910,-1.363352,1.813543,-0.063921,-0.453902,-0.207470,8.810329,0,0.003453813,0
1785959539.132916,0.000614,0.000558,-0.001050,-0.119629,0.025879,-0.991699,0.995329,0.021048,0.094207,-0.001700,-0.999821,0.011924,-0.014657,0.000373,2.426119,10.813051,0.033882,-1.367467,1.678947,-0.062751,-0.430190,-0.207297,8.810611,0,0.003456130,0
1785959539.153387,0.000481,0.000558,-0.001050,-0.118652,0.025146,-0.991699,0.995297,0.021120,0.094530,-0.001706,-0.999838,0.011862,-0.013516,0.000376,2.434605,10.850208,0.034847,-1.360289,1.548235,-0.061498,-0.406181,-0.208774,8.811296,0,0.003478193,0
1785959539.172947,0.000348,0.000425,-0.001050,-0.119141,0.025635,-0.991211,0.995264,0.021192,0.094852,-0.001711,-0.999853,0.011886,-0.012383,0.000379,2.443060,10.887278,0.035824,-1.362922,1.418405,-0.060340,-0.384268,-0.207102,8.812444,0,0.003455959,0
1785959539.193033,0.000215,0.000691,-0.001583,-0.119141,0.025635,-0.992188,0.995232,0.021263,0.095175,-0.001719,-0.999866,0.011905,-0.011271,0.000388,2.451383,10.924513,0.036502,-1.364972,1.290995,-0.059839,-0.362098,-0.207592,8.812030,0,0.003461599,0
1785959539.213138,0.000215,0.000691,-0.001183,-0.118652,0.025146,-0.991943,0.995199,0.021334,0.095498,-0.001725,-0.999878,0.011860,-0.010185,0.000393,2.459706,10.961748,0.037410,-1.359776,1.166505,-0.058840,-0.339803,-0.208441,8.812782,0,0.003466721,0
1785959539.233017,0.000481,0.001224,-0.001183,-0.118652,0.025879,-0.991943,0.995167,0.021407,0.095824,-0.001731,-0.999887,0.011924,-0.009118,0.000397,2.468272,10.999269,0.038354,-1.367022,1.044260,-0.057991,-0.318595,-0.206779,8.813259,0,0.003460917,0
1785959539.253094,0.000614,0.001224,-0.001050,-0.118896,0.025879,-0.991455,0.995134,0.021480,0.096150,-0.001736,-0.999896,0.011974,-0.008062,0.000401,2.476925,11.036787,0.039380,-1.372637,0.923284,-0.056993,-0.297916,-0.208000,8.814123,0,0.003464987,0
1785959539.273154,0.000614,0.000691,-0.000917,-0.118896,0.025391,-0.991943,0.995101,0.021553,0.096474,-0.001741,-0.999904,0.011948,-0.007020,0.000403,2.485534,11.074009,0.040465,-1.369644,0.803837,-0.055788,-0.277102,-0.209457,8.813969,0,0.003467307,0
1785959539.293264,0.000747,0.001224,-0.001450,-0.118652,0.025879,-0.991943,0.995067,0.021627,0.096799,-0.001749,-0.999910,0.011996,-0.006000,0.000411,2.494228,11.111535,0.041271,-1.375033,0.686972,-0.055293,-0.256511,-0.208439,8.814289,0,0.003471236,0
1785959539.313208,0.000481,0.000824,-0.001317,-0.119385,0.025879,-0.991211,0.995034,0.021700,0.097123,-0.001755,-0.999915,0.012037,-0.004980,0.000417,2.502766,11.148832,0.042147,-1.379616,0.570007,-0.054603,-0.237157,-0.209420,8.815260,0,0.003467053,0
1785959539.333161,0.000215,0.000291,-0.001050,-0.118652,0.026123,-0.990967,0.995001,0.021772,0.097444,-0.001761,-0.999919,0.012105,-0.003980,0.000420,2.511227,11.185808,0.043179,-1.387393,0.455482,-0.053644,-0.216297,-0.210016,8.815705,0,0.003464366,0
1785959539.353386,0.000348,0.000558,-0.001050,-0.119141,0.025391,-0.991455,0.994968,0.021843,0.097767,-0.001766,-0.999923,0.012059,-0.002993,0.000424,2.519670,11.222956,0.044205,-1.382089,0.342420,-0.052671,-0.197231,-0.212056,8.815360,0,0.003473901,0
1785959539.373504,0.000614,0.001090,-0.000784,-0.119873,0.025635,-0.991699,0.994934,0.021917,0.098092,-0.001770,-0.999925,0.012057,-0.002015,0.000425,2.528309,11.260399,0.045407,-1.381753,0.230258,-0.051429,-0.178711,-0.210855,8.815274,0,0.003476500,0
1785959539.393401,0.000215,0.001090,-0.001317,-0.119629,0.025391,-0.991699,0.994901,0.021987,0.098418,-0.001777,-0.999927,0.012030,-0.001056,0.000431,2.536640,11.297861,0.046300,-1.378623,0.120429,-0.050813,-0.159258,-0.211123,8.815369,0,0.003469040,0
1785959539.413204,0.000481,0.000691,-0.000784,-0.120117,0.025879,-0.991211,0.994867,0.022060,0.098741,-0.001781,-0.999927,0.012076,-0.000099,0.000432,2.545226,11.335069,0.047509,-1.383799,0.010793,-0.049596,-0.140867,-0.210048,8.815930,0,0.003459433,0
1785959539.433357,0.000747,0.000824,-0.001050,-0.119629,0.025635,-0.991699,0.994833,0.022134,0.099065,-0.001786,-0.999927,0.012077,0.000833,0.000435,2.553922,11.372365,0.048567,-1.383972,-0.096020,-0.048742,-0.121634,-0.211124,8.815444,0,0.003467096,0
1785959539.453227,0.000747,0.000957,-0.001317,-0.119629,0.025391,-0.992188,0.994799,0.022207,0.099389,-0.001793,-0.999926,0.012049,0.001747,0.000442,2.562562,11.409749,0.049475,-1.380638,-0.200778,-0.048207,-0.103368,-0.211400,8.814941,0,0.003460820,0
1785959539.473158,0.000614,0.000691,-0.001317,-0.120117,0.025635,-0.991455,0.994765,0.022280,0.099712,-0.001800,-0.999924,0.012065,0.002659,0.000448,2.571142,11.446975,0.050384,-1.382440,-0.305322,-0.047665,-0.085868,-0.210609,8.815641,0,0.003458678,0
1785959539.493333,0.000614,0.001090,-0.000784,-0.119385,0.025391,-0.991211,0.994731,0.022353,0.100038,-0.001804,-0.999921,0.012050,0.003543,0.000449,2.579779,11.484420,0.051618,-1.380689,-0.406591,-0.046593,-0.067320,-0.211158,8.815799,0,0.003467485,0
1785959539.518531,0.000481,0.000691,-0.000784,-0.119385,0.025635,-0.991211,0.994697,0.022425,0.100361,-0.001808,-0.999917,0.012075,0.004442,0.000452,2.588366,11.521629,0.052854,-1.383490,-0.509614,-0.045689,-0.049936,-0.210614,8.815698,0,0.003691439,0
1785959539.533389,0.000481,0.001224,-0.001050,-0.119141,0.025879,-0.991699,0.994662,0.022498,0.100686,-0.001814,-0.999912,0.012127,0.005291,0.000454,2.596962,11.559142,0.053960,-1.389430,-0.606920,-0.044637,-0.032061,-0.210894,8.815057,0,0.003413216,0
1785959539.553295,0.000348,0.001224,-0.001317,-0.119873,0.025635,-0.991699,0.994627,0.022570,0.101012,-0.001820,-0.999907,0.012134,0.006135,0.000460,2.605406,11.596671,0.054908,-1.390298,-0.703618,-0.044219,-0.016191,-0.212152,8.814871,0,0.003421688,0
1785959539.573648,0.000215,0.000824,-0.000784,-0.119141,0.025146,-0.991211,0.994593,0.022641,0.101336,-0.001824,-0.999903,0.012084,0.006961,0.000462,2.613798,11.633966,0.056154,-1.384439,-0.798273,-0.043291,0.001167,-0.212810,8.815165,0,0.003447118,0
1785959539.593358,-0.000052,0.001490,-0.000784,-0.119141,0.026123,-0.991455,0.994558,0.022711,0.101663,-0.001828,-0.999896,0.012177,0.007771,0.000463,2.622154,11.671617,0.057447,-1.395130,-0.891029,-0.042258,0.017250,-0.210878,8.814733,0,0.003438959,0
1785959539.613098,0.000215,0.001490,-0.001450,-0.119141,0.025635,-0.992676,0.994523,0.022782,0.101990,-0.001835,-0.999889,0.012179,0.008563,0.000471,2.630530,11.709298,0.058345,-1.395291,-0.981818,-0.042075,0.033133,-0.213137,8.813236,0,0.003434055,0
1785959539.633292,0.000481,0.001090,-0.000917,-0.118896,0.025635,-0.991455,0.994488,0.022855,0.102315,-0.001840,-0.999882,0.012185,0.009347,0.000474,2.639126,11.746735,0.059550,-1.395975,-1.071674,-0.041317,0.048989,-0.213106,8.814203,0,0.003449681,0
1785959539.653767,0.000614,0.000824,-0.001450,-0.119141,0.025879,-0.991211,0.994453,0.022928,0.102639,-0.001847,-0.999874,0.012223,0.010129,0.000483,2.647758,11.784028,0.060447,-1.400324,-1.161285,-0.041152,0.064180,-0.212942,8.814169,0,0.003473499,0
1785959539.673170,0.001147,0.001090,-0.001716,-0.120117,0.026123,-0.991943,0.994417,0.023003,0.102964,-0.001856,-0.999865,0.012277,0.010907,0.000493,2.656669,11.821478,0.061203,-1.406496,-1.250447,-0.041163,0.078503,-0.213339,8.813123,0,0.003445734,0
1785959539.693363,0.000747,0.000824,-0.001450,-0.118652,0.025635,-0.991455,0.994382,0.023077,0.103287,-0.001864,-0.999857,0.012263,0.011655,0.000501,2.665366,11.858774,0.062109,-1.404835,-1.336166,-0.041076,0.095273,-0.214946,8.813262,0,0.003458485,0
1785959539.713127,0.000215,0.000824,-0.001317,-0.119385,0.025879,-0.991211,0.994347,0.023148,0.103611,-0.001870,-0.999847,0.012290,0.012402,0.000508,2.673784,11.896063,0.063100,-1.407929,-1.421802,-0.040750,0.109216,-0.214516,8.813179,0,0.003449795,0
1785959539.733877,0.001013,0.000824,-0.001050,-0.119385,0.025391,-0.991211,0.994311,0.023223,0.103935,-0.001876,-0.999839,0.012242,0.013139,0.000512,2.682640,11.933356,0.064242,-1.402472,-1.506273,-0.040294,0.123865,-0.215361,8.812818,0,0.003485315,0
1785959539.753251,0.000614,0.001357,-0.001050,-0.119141,0.025635,-0.992188,0.994275,0.023296,0.104261,-0.001881,-0.999829,0.012243,0.013853,0.000516,2.691305,11.970947,0.065411,-1.402526,-1.588115,-0.039743,0.138478,-0.214264,8.811495,0,0.003453390,0
1785959539.773318,0.000481,0.001090,-0.001716,-0.119873,0.025635,-0.991211,0.994239,0.023368,0.104586,-0.001890,-0.999819,0.012248,0.014571,0.000527,2.699796,12.008406,0.066186,-1.403106,-1.670363,-0.039973,0.151800,-0.214281,8.812092,0,0.003458851,0
1785959539.793211,0.000481,0.000824,-0.001050,-0.118896,0.026123,-0.991455,0.994204,0.023441,0.104909,-0.001895,-0.999807,0.012319,0.015268,0.000531,2.708446,12.045678,0.067365,-1.411243,-1.750227,-0.039351,0.166902,-0.213887,8.811443,0,0.003455602,0
1785959539.813188,0.000880,0.001090,-0.000917,-0.120117,0.025879,-0.992188,0.994168,0.023516,0.105234,-0.001900,-0.999796,0.012334,0.015965,0.000534,2.717288,12.083110,0.068623,-1.412920,-1.830159,-0.038666,0.179296,-0.215435,8.810273,0,0.003456723,0
1785959539.833214,0.000614,0.001090,-0.001583,-0.119629,0.026123,-0.991699,0.994131,0.023589,0.105559,-0.001908,-0.999785,0.012383,0.016647,0.000544,2.725936,12.120551,0.069506,-1.418552,-1.908330,-0.038708,0.193467,-0.215514,8.810326,0,0.003459638,0
1785959539.853218,0.000481,0.000558,-0.001050,-0.120117,0.025635,-0.991455,0.994095,0.023661,0.105881,-0.001914,-0.999773,0.012358,0.017329,0.000548,2.734507,12.157686,0.070677,-1.415741,-1.986463,-0.038272,0.206457,-0.216985,8.810106,0,0.003460918,0
1785959539.873196,0.001280,0.001224,-0.000784,-0.119629,0.025879,-0.991211,0.994059,0.023738,0.106207,-0.001918,-0.999762,0.012370,0.017988,0.000550,2.743614,12.195187,0.072038,-1.417138,-2.062053,-0.037495,0.220184,-0.216094,8.809916,0,0.003460748,0
1785959539.893226,0.000348,0.000824,-0.001183,-0.119873,0.025635,-0.991211,0.994022,0.023810,0.106530,-0.001924,-0.999750,0.012356,0.018644,0.000555,2.752104,12.232476,0.073152,-1.415489,-2.137213,-0.037254,0.232954,-0.216745,8.809446,0,0.003462870,0
1785959539.913186,-0.000185,0.001224,-0.000917,-0.118896,0.025635,-0.991455,0.993986,0.023879,0.106856,-0.001928,-0.999738,0.012353,0.019273,0.000559,2.760351,12.269982,0.074444,-1.415137,-2.209247,-0.036751,0.246712,-0.216557,8.808737,0,0.003461458,0
1785959539.933185,0.000747,0.001623,-0.001317,-0.119385,0.026123,-0.991943,0.993949,0.023953,0.107183,-0.001935,-0.999725,0.012407,0.019895,0.000566,2.769127,12.307718,0.075529,-1.421336,-2.280565,-0.036570,0.258472,-0.215812,8.807791,0,0.003462045,0
1785959539.958603,0.000747,0.001090,-0.001317,-0.119385,0.025879,-0.991455,0.993912,0.024027,0.107508,-0.001942,-0.999712,0.012418,0.020529,0.000576,2.777875,12.345154,0.076598,-1.422525,-2.353222,-0.036843,0.270721,-0.217061,8.807775,0,0.003696859,0
1785959539.973154,0.000081,0.000691,-0.000784,-0.118896,0.025635,-0.991699,0.993875,0.024097,0.107831,-0.001946,-0.999700,0.012402,0.021130,0.000576,2.786293,12.382351,0.077972,-1.420752,-2.422115,-0.036011,0.283806,-0.217679,8.807011,0,0.003404164,0
1785959539.993018,0.000348,0.000824,-0.001583,-0.119385,0.025879,-0.992188,0.993838,0.024169,0.108154,-0.001954,-0.999687,0.012420,0.021726,0.000586,2.794781,12.419641,0.078889,-1.422757,-2.490431,-0.036247,0.295047,-0.217055,8.806044,0,0.003413058,0
1785959540.013256,0.000481,0.000425,-0.001050,-0.118896,0.025879,-0.991943,0.993802,0.024242,0.108476,-0.001959,-0.999674,0.012435,0.022312,0.000591,2.803424,12.456686,0.080116,-1.424570,-2.557664,-0.035911,0.307294,-0.217362,8.805776,0,0.003435650,0
1785959540.033170,0.000614,0.000291,-0.001317,-0.119629,0.026123,-0.991943,0.993765,0.024315,0.108796,-0.001966,-0.999660,0.012478,0.022901,0.000598,2.812119,12.493659,0.081191,-1.429491,-2.625190,-0.035774,0.318091,-0.217388,8.805261,0,0.003438998,0
1785959540.053170,0.001147,0.001090,-0.001317,-0.119385,0.025635,-0.991699,0.993727,0.024391,0.109121,-0.001973,-0.999647,0.012445,0.023469,0.000605,2.821079,12.531099,0.082284,-1.425724,-2.690308,-0.035871,0.329729,-0.218600,8.804972,0,0.003445146,0
1785959540.073143,0.000481,0.000691,-0.000651,-0.119385,0.025146,-0.991455,0.993690,0.024463,0.109444,-0.001976,-0.999635,0.012366,0.024032,0.000606,2.829690,12.568303,0.083751,-1.416585,-2.754764,-0.035367,0.340940,-0.218567,8.804708,0,0.003448651,0
1785959540.093182,0.000614,0.000691,-0.000917,-0.119141,0.025391,-0.991943,0.993653,0.024536,0.109767,-0.001981,-0.999621,0.012339,0.024584,0.000609,2.838377,12.605507,0.085074,-1.413542,-2.817999,-0.035052,0.352209,-0.216719,8.803735,0,0.003454122,0
1785959540.113235,0.000348,0.000824,-0.001183,-0.119629,0.025879,-0.991211,0.993615,0.024608,0.110090,-0.001987,-0.999607,0.012388,0.025135,0.000615,2.846923,12.642785,0.086260,-1.419216,-2.881174,-0.034835,0.362510,-0.215747,8.803954,0,0.003458836,0
1785959540.133212,0.000215,0.000824,-0.000917,-0.119629,0.025879,-0.991455,0.993577,0.024679,0.110413,-0.001992,-0.999593,0.012427,0.025677,0.000619,2.855427,12.680055,0.087608,-1.423619,-2.943288,-0.034358,0.373313,-0.216732,8.803148,0,0.003459149,0
1785959540.153239,0.000348,0.000425,-0.001450,-0.119873,0.025391,-0.991943,0.993540,0.024750,0.110735,-0.001999,-0.999579,0.012390,0.026214,0.000628,2.863881,12.717123,0.088625,-1.419381,-3.004962,-0.034711,0.383771,-0.217928,8.802098,0,0.003461523,0
1785959540.173552,0.000081,0.000957,-0.001050,-0.118896,0.025879,-0.991699,0.993502,0.024821,0.111059,-0.002004,-0.999565,0.012433,0.026730,0.000633,2.872315,12.754469,0.089915,-1.424376,-3.064069,-0.034441,0.395183,-0.216757,8.801817,0,0.003475500,0
1785959540.193423,0.000481,0.001090,-0.001183,-0.119385,0.025635,-0.991455,0.993464,0.024893,0.111383,-0.002010,-0.999551,0.012432,0.027241,0.000639,2.880925,12.791903,0.091128,-1.424206,-3.122664,-0.034426,0.404780,-0.217763,8.801507,0,0.003467179,0
1785959540.213254,0.000747,0.000291,-0.000651,-0.119873,0.026123,-0.992188,0.993426,0.024967,0.111704,-0.002014,-0.999536,0.012491,0.027758,0.000640,2.889794,12.828853,0.092644,-1.431037,-3.181901,-0.033588,0.414462,-0.217186,8.800228,0,0.003459221,0
1785959540.237641,0.000614,0.000691,-0.001050,-0.120117,0.025635,-0.991455,0.993388,0.025040,0.112026,-0.002019,-0.999522,0.012474,0.028276,0.000647,2.898482,12.866056,0.093931,-1.429072,-3.241311,-0.033708,0.424240,-0.218819,8.800380,0,0.003649565,0
1785959540.258892,0.000081,0.000824,-0.000917,-0.120117,0.025635,-0.991455,0.993349,0.025111,0.112350,-0.002024,-0.999508,0.012468,0.028786,0.000651,2.906886,12.903331,0.095307,-1.428436,-3.299793,-0.033480,0.434388,-0.218602,8.799815,0,0.003657419,0
1785959540.274463,0.000081,0.000824,-0.000917,-0.118896,0.025391,-0.991699,0.993311,0.025181,0.112673,-0.002028,-0.999494,0.012436,0.029260,0.000653,2.915294,12.940607,0.096688,-1.424780,-3.354042,-0.033133,0.445650,-0.218730,8.799000,0,0.003418859,0
1785959540.305779,0.000747,0.001090,-0.001317,-0.118896,0.025391,-0.991699,0.993272,0.025254,0.112998,-0.002035,-0.999480,0.012405,0.029746,0.000668,2.924035,12.978046,0.097849,-1.421160,-3.409877,-0.034246,0.454721,-0.217860,8.798495,0,0.003924773,0
1785959540.313238,0.000747,0.000558,-0.001050,-0.119385,0.025635,-0.991699,0.993234,0.025328,0.113320,-0.002041,-0.999466,0.012422,0.030206,0.000666,2.932824,13.015168,0.099160,-1.423161,-3.462577,-0.033386,0.464061,-0.217177,8.797925,0,0.003266728,0
1785959540.333481,0.000348,0.000957,-0.001583,-0.119873,0.024902,-0.990479,0.993195,0.025399,0.113644,-0.002049,-0.999453,0.012345,0.030660,0.000677,2.941229,13.052553,0.100156,-1.414241,-3.514636,-0.034250,0.472437,-0.218209,8.798606,0,0.003324414,0
1785959540.353313,0.000747,0.000691,-0.001317,-0.119141,0.025879,-0.991699,0.993156,0.025472,0.113966,-0.002056,-0.999439,0.012410,0.031105,0.000685,2.950020,13.089751,0.101333,-1.421703,-3.565673,-0.034276,0.482120,-0.215622,8.796880,0,0.003351222,0
1785959540.374434,0.000481,0.001090,-0.001317,-0.119141,0.025879,-0.991699,0.993117,0.025545,0.114291,-0.002062,-0.999424,0.012461,0.031543,0.000694,2.958663,13.127178,0.102528,-1.427628,-3.615881,-0.034462,0.490751,-0.216928,8.796313,0,0.003426062,0
1785959540.396218,0.000481,0.000691,-0.001450,-0.119141,0.025635,-0.991699,0.993078,0.025617,0.114613,-0.002070,-0.999410,0.012469,0.031982,0.000704,2.967261,13.164386,0.103633,-1.428503,-3.666218,-0.035005,0.499410,-0.218165,8.795745,0,0.003511574,0
1785959540.413162,0.000614,0.000824,-0.000784,-0.119629,0.026367,-0.992188,0.993038,0.025691,0.114936,-0.002074,-0.999395,0.012568,0.032413,0.000705,2.976094,13.201634,0.105155,-1.439917,-3.715677,-0.034183,0.507528,-0.217581,8.794705,0,0.003369987,0
1785959540.433298,0.000614,0.000558,-0.001050,-0.119141,0.025635,-0.991211,0.992999,0.025764,0.115258,-0.002079,-0.999382,0.012551,0.032834,0.000711,2.984826,13.238753,0.106502,-1.437983,-3.763918,-0.034256,0.516496,-0.220225,8.795087,0,0.003398667,0
1785959540.453239,0.000348,0.001357,-0.001183,-0.120117,0.025391,-0.991211,0.992960,0.025835,0.115584,-0.002085,-0.999368,0.012509,0.033252,0.000718,2.993347,13.276341,0.107791,-1.433090,-3.811785,-0.034587,0.523608,-0.220177,8.794566,0,0.003412182,0
1785959540.474563,0.000747,0.000691,-0.001317,-0.119141,0.025146,-0.992676,0.992920,0.025908,0.115906,-0.002092,-0.999356,0.012441,0.033659,0.000726,3.002073,13.313555,0.108986,-1.425291,-3.858509,-0.035274,0.532883,-0.219480,8.792575,0,0.003481259,0
1785959540.493336,0.000614,0.000558,-0.001317,-0.119629,0.025879,-0.991699,0.992880,0.025981,0.116228,-0.002099,-0.999341,0.012492,0.034069,0.000734,3.010789,13.350676,0.110199,-1.431170,-3.905492,-0.035312,0.540418,-0.217448,8.793046,0,0.003424785,0
1785959540.514851,0.000348,0.000558,-0.001317,-0.119873,0.025391,-0.991943,0.992841,0.026052,0.116550,-0.002106,-0.999327,0.012468,0.034476,0.000743,3.019299,13.387809,0.111404,-1.428350,-3.952178,-0.035858,0.548186,-0.218963,8.792232,0,0.003499030,0
1785959540.533646,0.000747,0.001090,-0.001317,-0.119629,0.025635,-0.992188,0.992801,0.026126,0.116874,-0.002113,-0.999314,0.012481,0.034867,0.000750,3.028074,13.425240,0.112638,-1.429826,-3.997041,-0.036077,0.556321,-0.218162,8.791460,0,0.003439003,0
1785959540.553876,0.000614,0.000558,-0.001050,-0.119629,0.025391,-0.991455,0.992761,0.026199,0.117196,-0.002118,-0.999300,0.012463,0.035258,0.000755,3.036783,13.462364,0.114013,-1.427760,-4.041836,-0.036220,0.564072,-0.218663,8.791648,0,0.003454993,0
1785959540.573528,0.000481,0.001090,-0.001050,-0.119141,0.025635,-0.991943,0.992721,0.026271,0.117521,-0.002123,-0.999287,0.012483,0.035631,0.000761,3.045458,13.499784,0.115419,-1.430133,-4.084701,-0.036221,0.572112,-0.218082,8.790637,0,0.003442391,0
1785959540.593064,0.000481,0.000558,-0.001317,-0.119873,0.025391,-0.991699,0.992681,0.026343,0.117842,-0.002130,-0.999273,0.012467,0.036011,0.000768,3.054053,13.536915,0.116648,-1.428284,-4.128261,-0.036642,0.578805,-0.218715,8.790344,0,0.003428002,0
1785959540.613022,0.000481,0.000824,-0.001183,-0.118652,0.025391,-0.992432,0.992640,0.026415,0.118165,-0.002136,-0.999260,0.012457,0.036369,0.000775,3.062698,13.574190,0.117976,-1.427104,-4.169260,-0.036973,0.587410,-0.218386,8.789090,0,0.003435092,0
1785959540.633015,0.000481,0.000824,-0.001050,-0.119141,0.025146,-0.991699,0.992600,0.026487,0.118488,-0.002142,-0.999248,0.012420,0.036727,0.000781,3.071328,13.611468,0.119380,-1.422885,-4.210289,-0.037263,0.593922,-0.218417,8.789319,0,0.003441892,0
1785959540.653102,0.000215,0.001224,-0.001317,-0.119385,0.025879,-0.991211,0.992559,0.026558,0.118813,-0.002148,-0.999234,0.012493,0.037081,0.000790,3.079843,13.648966,0.120662,-1.431265,-4.250962,-0.037420,0.600606,-0.216999,8.789317,0,0.003451078,0
1785959540.672995,0.000880,0.000558,-0.001050,-0.120361,0.025635,-0.991699,0.992518,0.026632,0.119135,-0.002154,-0.999220,0.012508,0.037445,0.000795,3.088726,13.686084,0.122075,-1.432953,-4.292730,-0.037446,0.606705,-0.218536,8.788273,0,0.003449702,0
1785959540.693054,0.000614,0.000691,-0.000917,-0.119629,0.025635,-0.991455,0.992478,0.026705,0.119457,-0.002159,-0.999207,0.012524,0.037795,0.000799,3.097495,13.723271,0.123580,-1.434832,-4.332845,-0.037368,0.614541,-0.218863,8.787979,0,0.003455739,0
1785959540.713214,0.000215,0.001224,-0.000784,-0.118896,0.025635,-0.991455,0.992437,0.026776,0.119782,-0.002163,-0.999194,0.012542,0.038127,0.000803,3.106078,13.760755,0.125191,-1.436873,-4.370864,-0.037199,0.622016,-0.219251,8.787460,0,0.003464618,0
1785959540.735937,0.000348,0.000691,-0.001450,-0.119873,0.025879,-0.991455,0.992396,0.026848,0.120104,-0.002170,-0.999180,0.012586,0.038474,0.000814,3.114644,13.797953,0.126399,-1.441843,-4.410706,-0.037841,0.627622,-0.219295,8.786952,0,0.003581469,0
1785959540.753082,0.000614,0.000691,-0.001050,-0.119629,0.025635,-0.990723,0.992355,0.026921,0.120427,-0.002175,-0.999167,0.012588,0.038808,0.000818,3.123402,13.835142,0.127844,-1.442130,-4.449015,-0.037835,0.634702,-0.220360,8.787139,0,0.003430074,0
1785959540.773268,0.000081,0.000691,-0.001050,-0.119385,0.025146,-0.991455,0.992314,0.026991,0.120749,-0.002181,-0.999155,0.012529,0.039131,0.000824,3.131812,13.872342,0.129284,-1.435309,-4.486101,-0.038334,0.641466,-0.220968,8.785898,0,0.003446313,0
1785959540.793160,0.000215,0.000558,-0.001183,-0.119629,0.025391,-0.991699,0.992273,0.027061,0.121071,-0.002186,-0.999143,0.012516,0.039454,0.000832,3.140300,13.909464,0.130652,-1.433854,-4.523165,-0.038753,0.647581,-0.219520,8.785187,0,0.003446109,0
1785959540.813222,0.000747,0.000691,-0.001050,-0.119385,0.026123,-0.991699,0.992231,0.027135,0.121393,-0.002192,-0.999129,0.012600,0.039772,0.000837,3.149196,13.946640,0.132128,-1.443547,-4.559530,-0.038580,0.654123,-0.218424,8.784700,0,0.003453148,0
1785959540.833229,0.000348,0.000425,-0.001317,-0.119385,0.025391,-0.991699,0.992190,0.027206,0.121714,-0.002199,-0.999117,0.012571,0.040083,0.000846,3.157751,13.983689,0.133426,-1.440104,-4.595307,-0.039255,0.660384,-0.220872,8.784160,0,0.003456127,0
1785959540.853271,0.000614,0.001090,-0.001050,-0.119629,0.026123,-0.990967,0.992148,0.027280,0.122038,-0.002204,-0.999104,0.012646,0.040390,0.000852,3.166572,14.021094,0.134926,-1.448736,-4.630490,-0.039145,0.666114,-0.219492,8.784430,0,0.003459908,0
1785959540.873135,0.000481,0.000558,-0.001450,-0.118896,0.025635,-0.991699,0.992106,0.027352,0.122359,-0.002211,-0.999092,0.012638,0.040687,0.000862,3.175226,14.058214,0.136171,-1.447847,-4.664501,-0.039888,0.672958,-0.221461,8.783167,0,0.003455130,0
1785959540.893259,0.000481,0.001090,-0.001050,-0.119629,0.025879,-0.991943,0.992064,0.027424,0.122683,-0.002217,-0.999079,0.012664,0.040981,0.000868,3.183952,14.095624,0.137677,-1.450757,-4.698315,-0.040041,0.677922,-0.221058,8.782464,0,0.003462619,0
1785959540.913154,0.000747,0.000558,-0.001450,-0.119141,0.026123,-0.991211,0.992023,0.027498,0.123005,-0.002224,-0.999067,0.012717,0.041273,0.000878,3.192806,14.132734,0.138945,-1.456838,-4.731821,-0.040494,0.684288,-0.221242,8.782705,0,0.003458511,0
1785959540.933130,0.000614,0.001090,-0.001183,-0.119873,0.025635,-0.991943,0.991980,0.027571,0.123329,-0.002230,-0.999055,0.012690,0.041560,0.000885,3.201564,14.170153,0.140377,-1.453757,-4.764713,-0.041044,0.689168,-0.222785,8.781482,0,0.003458843,0
1785959540.953141,0.000481,0.000558,-0.001317,-0.119385,0.025635,-0.991211,0.991938,0.027643,0.123650,-0.002237,-0.999043,0.012676,0.041844,0.000894,3.210234,14.207270,0.141722,-1.452111,-4.797261,-0.041701,0.695373,-0.222271,8.781753,0,0.003460624,0
1785959540.973368,0.000481,0.000824,-0.001183,-0.119385,0.025635,-0.991211,0.991896,0.027715,0.123973,-0.002243,-0.999032,0.012667,0.042121,0.000901,3.218929,14.244534,0.143161,-1.451030,-4.829044,-0.042213,0.700872,-0.221979,8.781300,0,0.003471176,0
1785959540.994078,0.000747,0.000691,-0.001450,-0.118896,0.024902,-0.991943,0.991854,0.027788,0.124295,-0.002251,-0.999022,0.012561,0.042388,0.000912,3.227676,14.281745,0.144428,-1.438854,-4.859653,-0.043552,0.706807,-0.222454,8.780116,0,0.003499767,0
1785959541.013083,0.000481,0.001224,-0.001317,-0.119141,0.025635,-0.991699,0.991811,0.027860,0.124620,-0.002257,-0.999010,0.012584,0.042650,0.000920,3.236365,14.319240,0.145815,-1.441439,-4.889728,-0.044011,0.711697,-0.219700,8.779976,0,0.003448512,0
1785959541.033478,0.000880,0.000691,-0.001450,-0.118896,0.026123,-0.991211,0.991768,0.027935,0.124942,-0.002265,-0.998998,0.012664,0.042913,0.000931,3.245316,14.356423,0.147125,-1.450678,-4.919913,-0.044418,0.717162,-0.219551,8.780010,0,0.003469158,0
1785959541.053499,0.000481,0.001224,-0.001716,-0.119385,0.025635,-0.991211,0.991725,0.028006,0.125267,-0.002274,-0.998987,0.012662,0.043169,0.000943,3.253946,14.393931,0.148286,-1.450415,-4.949349,-0.045535,0.721723,-0.221681,8.779535,0,0.003468814,0
1785959541.073275,0.000481,0.001224,-0.001583,-0.119873,0.025635,-0.991943,0.991682,0.028078,0.125591,-0.002282,-0.998976,0.012659,0.043425,0.000955,3.262586,14.431436,0.149530,-1.449973,-4.978746,-0.046483,0.726259,-0.221629,8.778370,0,0.003458085,0
1785959541.093490,0.001280,0.000425,-0.001183,-0.119385,0.025635,-0.991943,0.991639,0.028154,0.125912,-0.002288,-0.998965,0.012652,0.043681,0.000962,3.271750,14.468470,0.150992,-1.449221,-5.008050,-0.046981,0.731911,-0.221389,8.777928,0,0.003468751,0
1785959541.113297,0.001147,0.001224,-0.000917,-0.119873,0.025391,-0.991455,0.991596,0.028230,0.126237,-0.002293,-0.998955,0.012618,0.043929,0.000967,3.280851,14.505958,0.152635,-1.445306,-5.036503,-0.047316,0.736267,-0.221530,8.777996,0,0.003459401,0
1785959541.133171,0.000614,0.001224,-0.001050,-0.119141,0.025635,-0.991455,0.991552,0.028303,0.126561,-0.002299,-0.998944,0.012632,0.044167,0.000973,3.289671,14.543441,0.154216,-1.446830,-5.063781,-0.047623,0.741852,-0.220708,8.777584,0,0.003455150,0
1785959541.155171,0.000481,0.001090,-0.001583,-0.120117,0.025391,-0.991455,0.991509,0.028374,0.126885,-0.002307,-0.998933,0.012609,0.044413,0.000986,3.298291,14.580875,0.155473,-1.444144,-5.092010,-0.048889,0.745535,-0.221205,8.777165,0,0.003543027,0
1785959541.173212,0.000880,0.000957,-0.001183,-0.120117,0.025879,-0.991211,0.991465,0.028448,0.127208,-0.002313,-0.998922,0.012656,0.044657,0.000992,3.307249,14.618208,0.156979,-1.449564,-5.119996,-0.049017,0.750411,-0.220208,8.776989,0,0.003439726,0
1785959541.195845,0.000348,0.001090,-0.001317,-0.119873,0.026123,-0.991211,0.991422,0.028520,0.127532,-0.002320,-0.998910,0.012728,0.044895,0.001003,3.315915,14.655614,0.158425,-1.457829,-5.147368,-0.049530,0.755358,-0.220947,8.776544,0,0.003558507,0
1785959541.213421,0.000747,0.001224,-0.000917,-0.119629,0.025635,-0.991455,0.991378,0.028594,0.127857,-0.002324,-0.998900,0.012715,0.045122,0.001007,3.324831,14.693094,0.160107,-1.456321,-5.173443,-0.049715,0.760297,-0.222795,8.775844,0,0.003431438,0
1785959541.233411,0.000348,0.000691,-0.001183,-0.119629,0.025879,-0.991211,0.991334,0.028665,0.128178,-0.002330,-0.998889,0.012741,0.045351,0.001015,3.333500,14.730271,0.161625,-1.459315,-5.199721,-0.050139,0.764820,-0.222337,8.775684,0,0.003438989,0
1785959541.253093,0.000880,0.001090,-0.001450,-0.119629,0.025879,-0.991455,0.991290,0.028740,0.128502,-0.002338,-0.998879,0.012757,0.045572,0.001025,3.342440,14.767686,0.163006,-1.461063,-5.225086,-0.050891,0.769228,-0.222731,8.775031,0,0.003431649,0
1785959541.273068,0.000614,0.000558,-0.001050,-0.118652,0.026123,-0.991455,0.991246,0.028813,0.128823,-0.002343,-0.998869,0.012805,0.045786,0.001031,3.351331,14.804773,0.164623,-1.466603,-5.249661,-0.051070,0.774628,-0.222831,8.774618,0,0.003438579,0
1785959541.293175,0.000348,0.000691,-0.001050,-0.119385,0.025146,-0.991699,0.991202,0.028884,0.129145,-0.002349,-0.998860,0.012713,0.045999,0.001038,3.359961,14.841960,0.166221,-1.456026,-5.274091,-0.052006,0.778059,-0.224793,8.773967,0,0.003449365,0
1785959541.313163,0.000481,0.000824,-0.001050,-0.119873,0.025635,-0.991211,0.991158,0.028956,0.129468,-0.002354,-0.998850,0.012710,0.046215,0.001044,3.368708,14.879214,0.167840,-1.455657,-5.298866,-0.052454,0.781710,-0.222467,8.774121,0,0.003452497,0
1785959541.333120,0.000348,0.000425,-0.001583,-0.119141,0.025635,-0.992188,0.991114,0.029028,0.129788,-0.002362,-0.998840,0.012708,0.046424,0.001056,3.377313,14.916254,0.169140,-1.455378,-5.322784,-0.053532,0.786748,-0.222410,8.772747,0,0.003453524,0
1785959541.353134,0.000614,0.000691,-0.001716,-0.119385,0.025391,-0.991943,0.991070,0.029100,0.130110,-0.002371,-0.998831,0.012674,0.046628,0.001070,3.386026,14.953457,0.170369,-1.451376,-5.346251,-0.054933,0.790530,-0.222542,8.772620,0,0.003456684,0
1785959541.374799,0.000747,0.000824,-0.001050,-0.119385,0.026367,-0.991211,0.991025,0.029174,0.130432,-0.002376,-0.998820,0.012780,0.046834,0.001077,3.395016,14.990692,0.172028,-1.463534,-5.369854,-0.054903,0.794488,-0.220847,8.773001,0,0.003529790,0
1785959541.393609,-0.000052,0.000691,-0.001183,-0.119629,0.026123,-0.991943,0.990981,0.029244,0.130754,-0.002382,-0.998810,0.012829,0.047036,0.001084,3.403500,15.027860,0.173601,-1.469154,-5.393122,-0.055199,0.798315,-0.223321,8.771829,0,0.003462613,0
1785959541.414191,0.000880,0.000558,-0.001183,-0.119141,0.026611,-0.991455,0.990936,0.029319,0.131075,-0.002388,-0.998800,0.012926,0.047235,0.001092,3.412577,15.064940,0.175192,-1.480271,-5.415896,-0.055317,0.802784,-0.223592,8.771924,0,0.003487810,0
1785959541.434672,0.000880,0.001090,-0.001317,-0.120361,0.026123,-0.991455,0.990891,0.029393,0.131399,-0.002395,-0.998790,0.012931,0.047434,0.001102,3.421567,15.102344,0.176709,-1.480815,-5.438812,-0.056069,0.805341,-0.225964,8.771518,0,0.003502571,0
1785959541.453224,0.000614,0.000691,-0.001050,-0.119385,0.025391,-0.991455,0.990846,0.029466,0.131720,-0.002401,-0.998782,0.012844,0.047622,0.001108,3.430395,15.139522,0.178363,-1.470823,-5.460324,-0.056949,0.810314,-0.226851,8.771134,0,0.003431310,0
1785959541.473107,0.000348,0.000957,-0.001450,-0.119629,0.026123,-0.991699,0.990801,0.029537,0.132043,-0.002408,-0.998773,0.012877,0.047809,0.001118,3.439080,15.176850,0.179813,-1.474579,-5.481746,-0.057726,0.813679,-0.224442,8.770589,0,0.003434415,0
1785959541.495827,0.000081,0.001357,-0.001317,-0.119141,0.025146,-0.991211,0.990755,0.029607,0.132368,-0.002414,-0.998766,0.012777,0.047982,0.001130,3.447554,15.214421,0.181340,-1.463045,-5.501668,-0.059342,0.817704,-0.226098,8.770720,0,0.003558166,0
1785959541.514951,0.000880,0.001224,-0.000784,-0.119385,0.025635,-0.991943,0.990710,0.029681,0.132692,-0.002419,-0.998758,0.012762,0.048159,0.001134,3.456613,15.251888,0.183196,-1.461269,-5.521931,-0.059592,0.820923,-0.223504,8.769709,0,0.003497181,0
1785959541.533220,0.000614,0.001224,-0.001183,-0.119629,0.025146,-0.991211,0.990664,0.029754,0.133017,-0.002425,-0.998750,0.012691,0.048333,0.001141,3.465406,15.289380,0.184807,-1.453136,-5.541896,-0.060550,0.824144,-0.223730,8.770114,0,0.003415297,0
1785959541.553618,0.000614,0.001090,-0.001450,-0.119385,0.026123,-0.991699,0.990618,0.029827,0.133340,-0.002432,-0.998741,0.012766,0.048506,0.001152,3.474259,15.326782,0.186289,-1.461719,-5.561750,-0.061157,0.827794,-0.221339,8.769332,0,0.003444168,0
1785959541.573141,-0.000052,0.000824,-0.001050,-0.119385,0.025391,-0.991699,0.990573,0.029896,0.133663,-0.002437,-0.998733,0.012732,0.048675,0.001159,3.482723,15.364033,0.187985,-1.457694,-5.581243,-0.061900,0.831235,-0.223665,8.768956,0,0.003428784,0
1785959541.593504,0.000348,0.000691,-0.001583,-0.120117,0.025391,-0.992188,0.990527,0.029967,0.133984,-0.002445,-0.998725,0.012701,0.048851,0.001171,3.491317,15.401229,0.189362,-1.454063,-5.601368,-0.063253,0.833847,-0.222881,8.768162,0,0.003452913,0
1785959541.614153,0.000348,0.000425,-0.000917,-0.119141,0.025879,-0.991455,0.990482,0.030039,0.134304,-0.002450,-0.998716,0.012747,0.049020,0.001177,3.500083,15.438235,0.191148,-1.459411,-5.620816,-0.063427,0.838300,-0.221778,8.768569,0,0.003483332,0
1785959541.633105,0.000348,0.001224,-0.001849,-0.119141,0.025879,-0.991211,0.990435,0.030110,0.134629,-0.002459,-0.998707,0.012783,0.049179,0.001191,3.508713,15.475731,0.192417,-1.463426,-5.639036,-0.064619,0.841479,-0.222671,8.768479,0,0.003433952,0
1785959541.653269,0.000481,0.000824,-0.001183,-0.119873,0.025635,-0.990967,0.990389,0.030182,0.134951,-0.002465,-0.998699,0.012776,0.049344,0.001200,3.517483,15.512981,0.194062,-1.462608,-5.658050,-0.065373,0.843912,-0.223571,8.768394,0,0.003448304,0
1785959541.673522,0.001013,0.000824,-0.001183,-0.119141,0.026123,-0.991455,0.990343,0.030257,0.135273,-0.002471,-0.998691,0.012832,0.049502,0.001208,3.526623,15.550219,0.195730,-1.469001,-5.676162,-0.065773,0.847883,-0.222830,8.767592,0,0.003462981,0
1785959541.693548,0.000348,0.000824,-0.001050,-0.119141,0.025391,-0.991211,0.990297,0.030328,0.135595,-0.002477,-0.998684,0.012783,0.049655,0.001215,3.535336,15.587467,0.197464,-1.463373,-5.693702,-0.066650,0.850970,-0.224778,8.767498,0,0.003464387,0
1785959541.713181,0.000747,0.000824,-0.000651,-0.118896,0.025879,-0.990967,0.990251,0.030402,0.135917,-0.002480,-0.998676,0.012811,0.049805,0.001218,3.544397,15.624689,0.199456,-1.466539,-5.710944,-0.066607,0.854203,-0.223257,8.767471,0,0.003448683,0
1785959541.733077,0.000348,0.001224,-0.001183,-0.119141,0.025635,-0.990967,0.990204,0.030474,0.136241,-0.002486,-0.998669,0.012802,0.049950,0.001227,3.553122,15.662164,0.201145,-1.465473,-5.727604,-0.067426,0.856820,-0.224098,8.767170,0,0.003448008,0
1785959541.753525,0.000614,0.000691,-0.000784,-0.119141,0.025635,-0.991455,0.990157,0.030547,0.136563,-0.002490,-0.998662,0.012792,0.050098,0.001231,3.562061,15.699320,0.203058,-1.464376,-5.744568,-0.067793,0.859756,-0.223861,8.766394,0,0.003471083,0
1785959541.779544,0.000880,0.000824,-0.001450,-0.119873,0.026611,-0.990967,0.990110,0.030621,0.136885,-0.002498,-0.998652,0.012915,0.050256,0.001246,3.571126,15.736556,0.204608,-1.478407,-5.762744,-0.068575,0.861848,-0.222568,8.766607,0,0.003730289,0
1785959541.794116,0.000880,0.000824,-0.001450,-0.119629,0.026123,-0.991943,0.990064,0.030695,0.137207,-0.002505,-0.998644,0.012938,0.050404,0.001253,3.580154,15.773802,0.206153,-1.481061,-5.779728,-0.069039,0.865277,-0.225552,8.765246,0,0.003429127,0
1785959541.813388,0.000747,0.000425,-0.001183,-0.118896,0.025635,-0.991699,0.990017,0.030769,0.137527,-0.002511,-0.998638,0.012894,0.050543,0.001261,3.589117,15.810818,0.207839,-1.475942,-5.795690,-0.070016,0.868939,-0.226468,8.765182,0,0.003406799,0
1785959541.833320,0.001013,0.001224,-0.000917,-0.119873,0.025635,-0.991699,0.989969,0.030844,0.137851,-0.002517,-0.998631,0.012858,0.050681,0.001267,3.598265,15.848283,0.209714,-1.471759,-5.811546,-0.070668,0.870523,-0.225537,8.764947,0,0.003417936,0
1785959541.853067,0.000481,0.001090,-0.000917,-0.119873,0.025391,-0.991211,0.989922,0.030916,0.138174,-0.002521,-0.998625,0.012805,0.050819,0.001273,3.607088,15.885677,0.211584,-1.465704,-5.827313,-0.071439,0.873251,-0.225166,8.765173,0,0.003418528,0
1785959541.874735,0.000481,0.000691,-0.001183,-0.119141,0.025391,-0.991211,0.989875,0.030987,0.138495,-0.002527,-0.998619,0.012768,0.050953,0.001282,3.615881,15.922849,0.213291,-1.461371,-5.842681,-0.072566,0.876735,-0.224112,8.764920,0,0.003500799,0
1785959541.893402,0.000747,0.000425,-0.001050,-0.119873,0.025391,-0.991699,0.989828,0.031061,0.138815,-0.002533,-0.998612,0.012737,0.051093,0.001289,3.624833,15.959866,0.215070,-1.457807,-5.858771,-0.073278,0.878687,-0.223338,8.764177,0,0.003434920,0
1785959541.914169,0.000747,0.000957,-0.001050,-0.120117,0.025635,-0.991211,0.989780,0.031134,0.139138,-0.002539,-0.998605,0.012748,0.051230,0.001296,3.633812,15.997182,0.216880,-1.458973,-5.874462,-0.073879,0.881068,-0.222463,8.764412,0,0.003474752,0
1785959541.933501,0.000614,0.001090,-0.001183,-0.119141,0.025391,-0.991699,0.989732,0.031206,0.139461,-0.002545,-0.998599,0.012726,0.051353,0.001305,3.642694,16.034581,0.218621,-1.456404,-5.888603,-0.074788,0.884706,-0.222933,8.763645,0,0.003443651,0
1785959541.953366,0.000747,0.000824,-0.001317,-0.119385,0.025391,-0.991455,0.989685,0.031280,0.139783,-0.002552,-0.998592,0.012709,0.051479,0.001314,3.651626,16.071833,0.220278,-1.454462,-5.903090,-0.075835,0.886917,-0.222457,8.763648,0,0.003442930,0
1785959541.973337,0.000348,0.001090,-0.001183,-0.119873,0.025635,-0.991699,0.989637,0.031351,0.140106,-0.002557,-0.998586,0.012731,0.051605,0.001323,3.660369,16.109229,0.222034,-1.456917,-5.917618,-0.076530,0.888843,-0.221955,8.763161,0,0.003446903,0
1785959541.993525,0.000481,0.000824,-0.000917,-0.119141,0.026123,-0.991211,0.989589,0.031423,0.140428,-0.002562,-0.998578,0.012814,0.051728,0.001329,3.669294,16.146449,0.223962,-1.466429,-5.931721,-0.076575,0.892098,-0.221856,8.763378,0,0.003459152,0
1785959542.013374,0.000614,0.000824,-0.001050,-0.119873,0.025391,-0.991699,0.989541,0.031496,0.140750,-0.002568,-0.998572,0.012775,0.051852,0.001337,3.678192,16.183691,0.225793,-1.461942,-5.945945,-0.077460,0.893771,-0.224175,8.762600,0,0.003453940,0
1785959542.033442,0.000614,0.000691,-0.001050,-0.119629,0.025635,-0.991455,0.989493,0.031569,0.141071,-0.002573,-0.998566,0.012781,0.051974,0.001344,3.687119,16.220851,0.227634,-1.462528,-5.960004,-0.078101,0.896461,-0.223159,8.762609,0,0.003459350,0
1785959542.053258,0.000880,0.001090,-0.001050,-0.119873,0.025391,-0.991211,0.989444,0.031642,0.141395,-0.002579,-0.998560,0.012752,0.052093,0.001351,3.696178,16.258245,0.229488,-1.459134,-5.973577,-0.078930,0.898536,-0.223447,8.762611,0,0.003452652,0
1785959542.076363,0.000747,0.000691,-0.001317,-0.118896,0.025635,-0.991211,0.989396,0.031716,0.141716,-0.002586,-0.998554,0.012765,0.052206,0.001363,3.705158,16.295411,0.231187,-1.460629,-5.986647,-0.080073,0.901881,-0.222611,8.762378,0,0.003588832,0
1785959542.094660,0.000215,0.000691,-0.001317,-0.119141,0.025879,-0.991943,0.989347,0.031787,0.142037,-0.002592,-0.998547,0.012810,0.052320,0.001373,3.713854,16.332573,0.232897,-1.465718,-5.999731,-0.080706,0.903894,-0.222752,8.761399,0,0.003484573,0
1785959542.113449,0.000614,0.000824,-0.001317,-0.118896,0.026123,-0.991943,0.989299,0.031860,0.142359,-0.002599,-0.998541,0.012872,0.052429,0.001382,3.722810,16.369805,0.234627,-1.472885,-6.012168,-0.081262,0.906338,-0.223293,8.761148,0,0.003427933,0
1785959542.138641,0.000747,0.001090,-0.001450,-0.118896,0.026123,-0.991943,0.989250,0.031933,0.142682,-0.002606,-0.998535,0.012918,0.052532,0.001397,3.731826,16.407194,0.236294,-1.478043,-6.024112,-0.082584,0.908343,-0.224424,8.760909,0,0.003660503,0
1785959542.157385,0.000747,0.000691,-0.001450,-0.119873,0.025146,-0.991699,0.989201,0.032006,0.143003,-0.002614,-0.998530,0.012822,0.052646,0.001408,3.740730,16.444376,0.237920,-1.466928,-6.037098,-0.084202,0.909539,-0.226330,8.760900,0,0.003556770,0
1785959542.175092,0.000348,0.001224,-0.001050,-0.118896,0.026123,-0.991943,0.989152,0.032078,0.143326,-0.002619,-0.998524,0.012885,0.052746,0.001414,3.749592,16.481825,0.239843,-1.474188,-6.048599,-0.084439,0.912639,-0.223540,8.760477,0,0.003435720,0
1785959542.206615,0.000614,0.000558,-0.001183,-0.118896,0.026123,-0.991943,0.989103,0.032151,0.143647,-0.002625,-0.998518,0.012931,0.052853,0.001430,3.758579,16.518898,0.241667,-1.479349,-6.060966,-0.085784,0.914642,-0.224623,8.760238,0,0.003947623,0
1785959542.226985,0.000481,0.001224,-0.000917,-0.119385,0.025391,-0.991943,0.989054,0.032223,0.143970,-0.002630,-0.998513,0.012865,0.052955,0.001436,3.767468,16.556357,0.243660,-1.471775,-6.072689,-0.086777,0.916183,-0.226340,8.759997,0,0.003839043,0
1785959542.234749,0.000747,0.000824,-0.000917,-0.119629,0.025879,-0.991699,0.989004,0.032297,0.144292,-0.002635,-0.998507,0.012886,0.053060,0.001437,3.776548,16.593579,0.245656,-1.474124,-6.084731,-0.086598,0.918112,-0.224608,8.760042,0,0.003220532,0
1785959542.253321,0.000348,0.000558,-0.001583,-0.119873,0.026123,-0.991943,0.988955,0.032368,0.144612,-0.002643,-0.998501,0.012931,0.053164,0.001449,3.785303,16.630668,0.247255,-1.479222,-6.096682,-0.087549,0.919886,-0.224729,8.759574,0,0.003219630,0
1785959542.273282,0.000614,0.000824,-0.001317,-0.120117,0.025879,-0.991699,0.988906,0.032440,0.144934,-0.002649,-0.998496,0.012932,0.053266,0.001460,3.794235,16.667905,0.249022,-1.479292,-6.108348,-0.088573,0.921616,-0.225782,8.759586,0,0.003276521,0
1785959542.294086,0.000481,0.001224,-0.001183,-0.119873,0.025635,-0.991455,0.988856,0.032512,0.145258,-0.002655,-0.998491,0.012904,0.053360,0.001469,3.803103,16.705369,0.250885,-1.476004,-6.119157,-0.089710,0.923758,-0.226056,8.759627,0,0.003355475,0
1785959542.313318,0.000880,0.000824,-0.001183,-0.119629,0.025879,-0.991211,0.988806,0.032586,0.145579,-0.002662,-0.998486,0.012914,0.053456,0.001478,3.812225,16.742598,0.252747,-1.477120,-6.130237,-0.090480,0.925935,-0.225182,8.759680,0,0.003349561,0
1785959542.333241,0.000348,0.001090,-0.000917,-0.119629,0.026123,-0.991455,0.988756,0.032658,0.145902,-0.002666,-0.998480,0.012956,0.053549,0.001484,3.821117,16.779964,0.254792,-1.482005,-6.140901,-0.090833,0.927763,-0.225224,8.759232,0,0.003374139,0
1785959542.353287,0.000880,0.000691,-0.001716,-0.120117,0.026123,-0.991699,0.988706,0.032732,0.146223,-0.002675,-0.998474,0.012983,0.053648,0.001498,3.830165,16.817133,0.256347,-1.484940,-6.152326,-0.092157,0.929172,-0.225929,8.758766,0,0.003398025,0
1785959542.373276,0.000481,0.001224,-0.001183,-0.119873,0.025635,-0.991455,0.988656,0.032804,0.146546,-0.002681,-0.998470,0.012943,0.053738,0.001508,3.839045,16.854595,0.258237,-1.480348,-6.162561,-0.093323,0.931254,-0.227001,8.758797,0,0.003413700,0
1785959542.393680,0.000747,0.000824,-0.001050,-0.119385,0.025635,-0.991211,0.988606,0.032877,0.146868,-0.002687,-0.998466,0.012914,0.053826,0.001515,3.848109,16.891822,0.260199,-1.476972,-6.172692,-0.094288,0.933558,-0.226162,8.758867,0,0.003443224,0
1785959542.413200,0.000614,0.000691,-0.000917,-0.119629,0.024902,-0.991455,0.988556,0.032949,0.147189,-0.002691,-0.998462,0.012797,0.053914,0.001522,3.857050,16.928982,0.262221,-1.463500,-6.182776,-0.095603,0.935070,-0.226351,8.758447,0,0.003427955,0
1785959542.433263,0.000614,0.001224,-0.001050,-0.119629,0.024902,-0.991211,0.988505,0.033022,0.147512,-0.002697,-0.998459,0.012712,0.053996,0.001530,3.865978,16.966452,0.264192,-1.453647,-6.192220,-0.096923,0.936680,-0.224047,8.758576,0,0.003439465,0
1785959542.453298,0.000081,0.001090,-0.001183,-0.118896,0.024902,-0.991455,0.988455,0.033091,0.147835,-0.002703,-0.998456,0.012655,0.054072,0.001539,3.874593,17.003848,0.266088,-1.446950,-6.200996,-0.098283,0.939047,-0.222467,8.758195,0,0.003447042,0
1785959542.473253,0.000348,0.000824,-0.001450,-0.119629,0.025879,-0.992188,0.988404,0.033162,0.148157,-0.002710,-0.998450,0.012735,0.054159,0.001551,3.883388,17.041084,0.267843,-1.456130,-6.210994,-0.099033,0.939863,-0.220289,8.757325,0,0.003449285,0
1785959542.493205,0.000614,0.001224,-0.000917,-0.119385,0.025391,-0.991211,0.988353,0.033235,0.148480,-0.002715,-0.998446,0.012732,0.054238,0.001558,3.892396,17.078537,0.269926,-1.455779,-6.220010,-0.099697,0.941728,-0.222295,8.758086,0,0.003450904,0
1785959542.513208,0.000614,0.000691,-0.001317,-0.119873,0.025391,-0.991699,0.988302,0.033307,0.148801,-0.002722,-0.998441,0.012728,0.054324,0.001568,3.901322,17.115701,0.271753,-1.455235,-6.229918,-0.100806,0.942880,-0.222222,8.757422,0,0.003454260,0
1785959542.533965,0.000614,0.001490,-0.001317,-0.119141,0.025391,-0.991455,0.988251,0.033379,0.149126,-0.002728,-0.998437,0.012727,0.054395,0.001580,3.910274,17.153320,0.273624,-1.455104,-6.238070,-0.101999,0.945133,-0.222119,8.757502,0,0.003488995,0
1785959542.553107,0.000747,0.000957,-0.001450,-0.119141,0.025391,-0.991699,0.988200,0.033452,0.149448,-0.002736,-0.998433,0.012726,0.054470,0.001591,3.919276,17.190639,0.275399,-1.454887,-6.246720,-0.103204,0.946643,-0.222077,8.757095,0,0.003446245,0
1785959542.573282,0.000348,0.001224,-0.001183,-0.119629,0.025635,-0.992188,0.988148,0.033524,0.149771,-0.002742,-0.998428,0.012758,0.054546,0.001601,3.928115,17.228096,0.277355,-1.458491,-6.255393,-0.103997,0.947564,-0.221867,8.756451,0,0.003458116,0
1785959542.594517,0.000481,0.000425,-0.001050,-0.119141,0.025391,-0.991943,0.988097,0.033595,0.150091,-0.002747,-0.998424,0.012750,0.054623,0.001609,3.937035,17.265095,0.279360,-1.457567,-6.264317,-0.104935,0.949680,-0.222691,8.756502,0,0.003512416,0
1785959542.613083,0.000614,0.001224,-0.001050,-0.119141,0.025635,-0.991943,0.988046,0.033668,0.150414,-0.002752,-0.998420,0.012777,0.054693,0.001617,3.946066,17.302544,0.281412,-1.460563,-6.272335,-0.105519,0.951065,-0.222277,8.756354,0,0.003439243,0
1785959542.633107,0.000215,0.000558,-0.001183,-0.119141,0.026123,-0.991699,0.987995,0.033739,0.150734,-0.002758,-0.998415,0.012864,0.054769,0.001626,3.954883,17.339608,0.283375,-1.470564,-6.281093,-0.105965,0.952543,-0.222359,8.756421,0,0.003446350,0
1785959542.653263,0.000880,0.000691,-0.001050,-0.119629,0.025391,-0.991455,0.987943,0.033813,0.151055,-0.002764,-0.998411,0.012828,0.054844,0.001634,3.964034,17.376758,0.285408,-1.466303,-6.289725,-0.107000,0.953517,-0.224660,8.756465,0,0.003457352,0
1785959542.673303,0.000747,0.001090,-0.001183,-0.119629,0.026123,-0.991699,0.987891,0.033886,0.151377,-0.002770,-0.998406,0.012897,0.054917,0.001644,3.973159,17.414127,0.287404,-1.474305,-6.298065,-0.107527,0.954910,-0.223223,8.756085,0,0.003460745,0
1785959542.693139,0.000614,0.001224,-0.001317,-0.119629,0.025391,-0.991699,0.987839,0.033959,0.151700,-0.002777,-0.998403,0.012854,0.054984,0.001654,3.982124,17.451591,0.289313,-1.469247,-6.305791,-0.108930,0.956307,-0.225337,8.755896,0,0.003454566,0
1785959542.714431,-0.000185,0.001224,-0.001317,-0.118896,0.025635,-0.990967,0.987787,0.034027,0.152024,-0.002783,-0.998400,0.012865,0.055045,0.001666,3.990670,17.489048,0.291239,-1.470375,-6.312871,-0.110179,0.958337,-0.224384,8.756503,0,0.003512149,0
1785959542.736194,0.000481,0.001224,-0.001450,-0.120117,0.025391,-0.991699,0.987735,0.034099,0.152347,-0.002790,-0.998396,0.012830,0.055115,0.001680,3.999530,17.526518,0.293078,-1.466293,-6.320891,-0.111830,0.958317,-0.224672,8.755637,0,0.003576143,0
1785959542.753309,0.000614,0.000691,-0.000917,-0.119629,0.026123,-0.991943,0.987683,0.034172,0.152667,-0.002795,-0.998391,0.012902,0.055188,0.001685,4.008634,17.563646,0.295243,-1.474524,-6.329219,-0.111899,0.960309,-0.223258,8.755243,0,0.003424868,0
1785959542.773376,0.000614,0.000824,-0.001050,-0.119141,0.025146,-0.991699,0.987630,0.034244,0.152989,-0.002800,-0.998389,0.012828,0.055249,0.001694,4.017641,17.600873,0.297316,-1.465996,-6.336300,-0.113230,0.962170,-0.225608,8.755300,0,0.003437308,0
