timestamp,gx,gy,gz,ax,ay,az,madgwick_qw,madgwick_qx,madgwick_qy,madgwick_qz,kalman_qw,kalman_qx,kalman_qy,kalman_qz,madgwick_roll_deg,madgwick_pitch_deg,madgwick_yaw_deg,kalman_roll_deg,kalman_pitch_deg,kalman_yaw_deg,robot_accel_x,robot_accel_y,robot_accel_z,kalman_converged,kalman_P_change,convergence_counter
1786126037.089708,-0.012835,-0.033264,-0.005578,-0.082031,0.039307,-0.992920,1.000000,0.000079,0.000131,-0.000028,0.999790,0.020403,0.001982,-0.000029,0.009007,0.015034,-0.003195,2.338209,0.227132,0.001303,-0.078199,0.037834,8.817044,0,0.087903733,0
1786126037.092969,-0.005112,-0.032465,-0.010238,-0.083252,0.040527,-0.990967,1.000000,0.000198,0.000265,-0.000079,0.998787,0.049128,0.003176,-0.000048,0.022702,0.030398,-0.009057,5.632021,0.363807,0.012367,-0.120537,0.440506,8.810773,0,0.029422386,0
1786126037.095037,0.001679,-0.030335,-0.015431,-0.083008,0.040283,-0.989746,1.000000,0.000352,0.000410,-0.000156,0.996300,0.085890,0.003061,-0.000067,0.040316,0.046971,-0.017894,9.854556,0.350185,0.022481,-0.144136,1.003066,8.772715,0,0.014784911,0
1786126037.096945,0.007272,-0.027405,-0.021424,-0.083740,0.039795,-0.989014,1.000000,0.000532,0.000570,-0.000264,0.991444,0.130526,0.000929,-0.000091,0.060931,0.065324,-0.030163,14.999991,0.106852,0.003565,-0.142656,1.718954,8.676121,0,0.008942249,0
1786126037.098820,0.009669,-0.024343,-0.027682,-0.085205,0.040283,-0.988525,0.999999,0.000724,0.000745,-0.000402,0.983170,0.182648,-0.004152,-0.000120,0.082923,0.085435,-0.046016,21.048608,-0.465227,-0.100461,-0.102520,2.579581,8.487280,0,0.006026654,0
1786126037.109014,0.009402,-0.019682,-0.034606,-0.083984,0.038086,-0.987305,0.999999,0.000911,0.000946,-0.000575,0.969931,0.242991,-0.013738,-0.000311,0.104301,0.108443,-0.065832,28.134513,-1.518381,-0.417278,-0.002944,3.562326,8.167641,0,0.004762609,0
1786126037.129109,0.005807,-0.015155,-0.038601,-0.082031,0.036377,-0.988281,0.999998,0.001078,0.001170,-0.000769,0.949038,0.313706,-0.030251,-0.000714,0.123392,0.134155,-0.087930,36.616075,-3.265955,-1.167116,0.177817,4.661845,7.659054,0,0.004406909,0
1786126037.149133,0.004742,-0.010228,-0.040865,-0.082764,0.036865,-0.990967,0.999998,0.001240,0.001418,-0.000973,0.917925,0.392719,-0.056433,-0.001100,0.141949,0.162658,-0.111315,46.463286,-5.896894,-2.670452,0.473837,5.879764,6.869671,0,0.004153940,0
1786126037.169248,0.003810,-0.004103,-0.043927,-0.083496,0.039062,-0.990723,0.999997,0.001404,0.001695,-0.001193,0.874933,0.474835,-0.094985,-0.001444,0.160600,0.194376,-0.136437,57.426299,-9.487848,-5.394788,0.919647,7.114436,5.730296,0,0.003977283,0
1786126037.189039,0.005674,0.002022,-0.047656,-0.082764,0.039551,-0.986816,0.999996,0.001579,0.002000,-0.001431,0.821048,0.551532,-0.147275,-0.001707,0.180605,0.229467,-0.163675,68.978054,-13.884014,-9.801210,1.527539,8.195448,4.221767,0,0.003834885,0
1786126037.209019,0.006606,0.008547,-0.051118,-0.082520,0.037598,-0.985596,0.999994,0.001754,0.002341,-0.001687,0.760123,0.614095,-0.212360,-0.001867,0.200567,0.268581,-0.192876,80.546410,-18.695952,-16.161388,2.263140,8.929958,2.430082,0,0.003739135,0
1786126037.229053,0.006739,0.014806,-0.053381,-0.082031,0.036865,-0.983887,0.999993,0.001929,0.002713,-0.001954,0.697570,0.656640,-0.286736,-0.001909,0.220444,0.311359,-0.223349,91.672810,-23.423822,-24.411449,3.053803,9.206534,0.542243,0,0.003670916,0
1786126037.249022,0.005275,0.020665,-0.055778,-0.082031,0.039062,-0.987061,0.999990,0.002103,0.003112,-0.002233,0.638278,0.677516,-0.365471,-0.001852,0.240189,0.357151,-0.255162,102.067693,-27.647841,-34.175493,3.809586,9.041035,-1.249027,0,0.003617525,0
1786126037.269018,0.003677,0.025991,-0.060572,-0.083008,0.042236,-0.990967,0.999988,0.002276,0.003534,-0.002536,0.585242,0.678589,-0.443853,-0.001739,0.259842,0.405569,-0.289686,111.593102,-31.142099,-44.926124,4.462004,8.545387,-2.805881,0,0.003578983,0
1786126037.289030,0.003144,0.029187,-0.066964,-0.083008,0.044922,-0.992920,0.999985,0.002454,0.003967,-0.002871,0.539646,0.663479,-0.518242,-0.001610,0.279962,0.455392,-0.327838,120.189000,-33.862298,-56.124527,4.984361,7.858487,-4.080273,0,0.003550845,0
1786126037.309209,0.001147,0.033714,-0.076950,-0.082275,0.047363,-0.993408,0.999981,0.002630,0.004419,-0.003255,0.501341,0.636353,-0.586268,-0.001493,0.299765,0.507321,-0.371670,127.857159,-35.869440,-67.311201,5.379219,7.096917,-5.086069,0,0.003537019,0
1786126037.329162,-0.001117,0.036510,-0.088801,-0.081055,0.049561,-0.991943,0.999977,0.002803,0.004879,-0.003698,0.469556,0.601162,-0.646621,-0.001413,0.319096,0.560325,-0.422251,134.625496,-37.268567,-78.125075,5.664050,6.336401,-5.866283,0,0.003516907,0
1786126037.349126,-0.005511,0.039307,-0.101851,-0.080078,0.053955,-0.990479,0.999972,0.002965,0.005346,-0.004207,0.443176,0.561414,-0.698861,-0.001387,0.337254,0.613998,-0.480261,140.554913,-38.161501,-88.310447,5.859336,5.622983,-6.469568,0,0.003502284,0
1786126037.369634,-0.009373,0.041970,-0.117430,-0.079346,0.057861,-0.989990,0.999967,0.003120,0.005817,-0.004793,0.421161,0.519602,-0.743394,-0.001425,0.354342,0.668303,-0.547148,145.721995,-38.659916,-97.748005,5.983138,4.974367,-6.940878,0,0.003514592,0
1786126037.388980,-0.012569,0.043568,-0.134475,-0.078125,0.060547,-0.991211,0.999960,0.003268,0.006289,-0.005464,0.402854,0.477731,-0.780692,-0.001502,0.370532,0.722704,-0.623755,150.171661,-38.871414,-106.334375,6.054224,4.392650,-7.315669,0,0.003474122,0
1786126037.408985,-0.015631,0.044899,-0.151785,-0.077393,0.062500,-0.993652,0.999952,0.003407,0.006761,-0.006221,0.387461,0.437045,-0.811703,-0.001640,0.385661,0.777177,-0.710235,153.996597,-38.871347,-114.085636,6.086024,3.882592,-7.613920,0,0.003471878,0
1786126037.428979,-0.020958,0.044234,-0.170827,-0.075928,0.064941,-0.996826,0.999943,0.003530,0.007220,-0.007072,0.374498,0.398483,-0.837233,-0.001844,0.398697,0.830249,-0.807583,157.260799,-38.727280,-121.010909,6.090731,3.437829,-7.856237,0,0.003469705,0
1786126037.448980,-0.026550,0.043035,-0.188404,-0.075684,0.064697,-0.999512,0.999932,0.003628,0.007670,-0.008012,0.363429,0.362406,-0.858240,-0.002101,0.408749,0.882268,-0.914974,160.054752,-38.484038,-127.190155,6.075140,3.050340,-8.053409,0,0.003468382,0
1786126037.469232,-0.034140,0.039839,-0.205714,-0.075684,0.063477,-1.001221,0.999920,0.003690,0.008103,-0.009037,0.353879,0.329036,-0.875499,-0.002425,0.414468,0.932268,-1.032268,162.444398,-38.173590,-132.688062,6.045844,2.714072,-8.216475,0,0.003478065,0
1786126037.489030,-0.042130,0.036510,-0.220095,-0.075928,0.060547,-1.001709,0.999905,0.003709,0.008520,-0.010134,0.345539,0.298373,-0.889702,-0.002772,0.415201,0.980601,-1.157796,164.497552,-37.821102,-137.581284,6.007097,2.420051,-8.352871,0,0.003466025,0
1786126037.509037,-0.045326,0.033181,-0.232878,-0.076416,0.058350,-1.001221,0.999890,0.003711,0.008923,-0.011295,0.338131,0.270519,-0.901375,-0.003122,0.413725,1.027226,-1.290646,166.261814,-37.436119,-141.914254,5.961947,2.165090,-8.467895,0,0.003465837,0
1786126037.529035,-0.046124,0.029187,-0.243664,-0.075195,0.055420,-1.000488,0.999872,0.003708,0.009306,-0.012509,0.331609,0.245269,-0.910970,-0.003442,0.411537,1.071637,-1.429674,167.779968,-37.048026,-145.753811,5.913498,1.941999,-8.567507,0,0.003465325,0
1786126037.549020,-0.044527,0.025991,-0.254850,-0.074707,0.054443,-0.997559,0.999851,0.003714,0.009671,-0.013779,0.325788,0.222719,-0.918828,-0.003715,0.410326,1.113966,-1.575101,169.081786,-36.657608,-149.122489,5.863914,1.749197,-8.650931,0,0.003464375,0
1786126037.569047,-0.040798,0.020931,-0.264970,-0.073730,0.051025,-0.998779,0.999829,0.003736,0.010012,-0.015100,0.320610,0.202393,-0.925328,-0.003938,0.410856,1.153615,-1.726333,170.210443,-36.280873,-152.110138,5.813704,1.579423,-8.727798,0,0.003465461,0
1786126037.589021,-0.035339,0.016936,-0.274823,-0.074463,0.048584,-1.000977,0.999804,0.003783,0.010335,-0.016470,0.315856,0.184223,-0.930742,-0.004097,0.413964,1.191353,-1.883218,171.193865,-35.905521,-154.749885,5.763606,1.430849,-8.795851,0,0.003464046,0
1786126037.609016,-0.025485,0.012941,-0.283345,-0.074463,0.047363,-1.004150,0.999776,0.003878,0.010638,-0.017883,0.311504,0.168123,-0.935245,-0.004171,0.422591,1.226779,-2.044983,172.050089,-35.539372,-157.066861,5.713878,1.300567,-8.857931,0,0.003463830,0
1786126037.629022,-0.015764,0.008281,-0.290003,-0.074219,0.047607,-1.005371,0.999746,0.004025,0.010912,-0.019330,0.307476,0.154023,-0.938999,-0.004171,0.437042,1.259157,-2.210557,172.792278,-35.180448,-159.081804,5.664850,1.187280,-8.912198,0,0.003464158,0
1786126037.649285,-0.006177,0.003754,-0.297061,-0.073486,0.048340,-1.003906,0.999712,0.004225,0.011156,-0.020813,0.303789,0.141783,-0.942122,-0.004121,0.457581,1.288207,-2.380163,173.430221,-34.836979,-160.820007,5.617153,1.089360,-8.959026,0,0.003475339,0
1786126037.669318,0.001147,-0.001573,-0.304518,-0.074463,0.050537,-1.001221,0.999676,0.004468,0.011365,-0.022333,0.300270,0.131320,-0.944763,-0.004031,0.482891,1.313462,-2.554036,173.977131,-34.493231,-162.302133,5.569826,1.005762,-9.000228,0,0.003474014,0
1786126037.689388,0.004209,-0.006500,-0.312640,-0.075195,0.052002,-0.997803,0.999637,0.004731,0.011541,-0.023894,0.296957,0.122378,-0.947008,-0.003951,0.510503,1.335150,-2.732559,174.440580,-34.157809,-163.564128,5.522709,0.934531,-9.038646,0,0.003474529,0
1786126037.709799,0.002611,-0.009296,-0.320763,-0.077393,0.049805,-0.992920,0.999594,0.004983,0.011708,-0.025495,0.293721,0.114428,-0.949009,-0.003924,0.536706,1.355748,-2.915752,174.843606,-33.820295,-164.680792,5.475358,0.871854,-9.073123,0,0.003489522,0
1786126037.729417,-0.003913,-0.010494,-0.326622,-0.078369,0.048828,-0.992676,0.999548,0.005201,0.011869,-0.027126,0.290651,0.107314,-0.950784,-0.003927,0.559049,1.375740,-3.102301,175.195352,-33.494019,-165.674105,5.428695,0.816877,-9.111422,0,0.003466945,0
1786126037.749295,-0.012702,-0.009829,-0.330483,-0.078857,0.043945,-0.996826,0.999499,0.005368,0.012044,-0.028775,0.287743,0.100624,-0.952398,-0.004007,0.575327,1.397248,-3.291076,175.508668,-33.181043,-166.598999,5.383231,0.766713,-9.152042,0,0.003461023,0
1786126037.769124,-0.020558,-0.008897,-0.333013,-0.078857,0.041260,-0.998535,0.999447,0.005492,0.012229,-0.030436,0.284987,0.094522,-0.953851,-0.004124,0.586514,1.419877,-3.481300,175.783799,-32.880616,-167.436866,5.339692,0.722884,-9.187857,0,0.003454510,0
1786126037.789158,-0.027749,-0.006367,-0.333812,-0.079102,0.039551,-0.995361,0.999392,0.005576,0.012433,-0.032101,0.282291,0.089089,-0.955174,-0.004274,0.593003,1.444502,-3.671972,176.021557,-32.582454,-168.179796,5.297156,0.685324,-9.216501,0,0.003458331,0
1786126037.809127,-0.033874,-0.003304,-0.334212,-0.079346,0.039795,-0.990723,0.999334,0.005629,0.012653,-0.033767,0.279637,0.084422,-0.956377,-0.004427,0.595860,1.470934,-3.862847,176.223427,-32.284827,-168.817342,5.254811,0.654067,-9.242487,0,0.003458401,0
1786126037.829109,-0.035871,0.001889,-0.337008,-0.079834,0.044189,-0.986328,0.999272,0.005683,0.012889,-0.035446,0.277084,0.080903,-0.957423,-0.004561,0.598568,1.499154,-4.055254,176.378753,-31.994291,-169.301410,5.213251,0.631682,-9.267166,0,0.003459048,0
1786126037.849086,-0.030811,0.009080,-0.343932,-0.080322,0.045654,-0.982178,0.999206,0.005768,0.013152,-0.037160,0.274785,0.078104,-0.958317,-0.004631,0.604713,1.530690,-4.251555,176.508289,-31.731488,-169.688590,5.174298,0.612097,-9.289456,0,0.003459308,0
1786126037.869249,-0.023354,0.016137,-0.350457,-0.081055,0.044922,-0.982910,0.999135,0.005894,0.013448,-0.038906,0.272720,0.075683,-0.959101,-0.004642,0.615071,1.566151,-4.451533,176.625933,-31.495311,-170.024560,5.138925,0.593647,-9.313209,0,0.003467436,0
1786126037.889534,-0.015764,0.023195,-0.358047,-0.081055,0.046387,-0.984375,0.999059,0.006065,0.013767,-0.040690,0.271005,0.073802,-0.959734,-0.004601,0.630430,1.604616,-4.655775,176.723712,-31.299125,-170.287401,5.108547,0.578771,-9.334942,0,0.003478787,0
1786126037.909065,-0.009373,0.030252,-0.368567,-0.082520,0.050293,-0.986328,0.998976,0.006279,0.014106,-0.042527,0.269609,0.072537,-0.960223,-0.004504,0.650331,1.645605,-4.865946,176.801040,-31.139075,-170.468377,5.083571,0.567713,-9.353571,0,0.003455150,0
1786126037.929153,-0.004979,0.037975,-0.380151,-0.083008,0.052246,-0.989258,0.998887,0.006525,0.014467,-0.044421,0.268704,0.071781,-0.960534,-0.004431,0.673516,1.689443,-5.082648,176.849721,-31.035085,-170.577482,5.065555,0.560484,-9.369723,0,0.003461138,0
1786126037.949150,-0.004446,0.043834,-0.392402,-0.082764,0.051025,-0.991211,0.998791,0.006781,0.014844,-0.046375,0.268371,0.071046,-0.960682,-0.004384,0.697513,1.735269,-5.306276,176.886453,-30.998513,-170.677294,5.056430,0.553505,-9.380619,0,0.003461712,0
1786126037.969132,-0.008441,0.047563,-0.401590,-0.080811,0.047852,-0.991455,0.998688,0.007023,0.015227,-0.048375,0.268648,0.070139,-0.960671,-0.004393,0.719679,1.781833,-5.535088,176.914172,-31.034111,-170.791506,5.057407,0.546758,-9.384795,0,0.003461533,0
1786126037.989316,-0.018960,0.050891,-0.408780,-0.080322,0.043457,-0.987305,0.998580,0.007215,0.015625,-0.050409,0.269323,0.069032,-0.960562,-0.004504,0.735735,1.829937,-5.767960,176.930885,-31.116608,-170.924221,5.066752,0.541400,-9.379414,0,0.003470037,0
1786126038.009394,-0.029879,0.054354,-0.412908,-0.080322,0.039062,-0.989990,0.998467,0.007351,0.016047,-0.052462,0.270222,0.067680,-0.960405,-0.004681,0.745045,1.880558,-6.003150,176.945359,-31.225800,-171.084212,5.081254,0.536616,-9.376804,0,0.003471905,0
1786126038.029274,-0.039733,0.056884,-0.415305,-0.078369,0.040527,-0.994629,0.998349,0.007444,0.016470,-0.054525,0.271441,0.066716,-0.960127,-0.004894,0.749161,1.931128,-6.239646,176.937395,-31.371415,-171.189953,5.100689,0.537310,-9.373668,0,0.003464868,0
1786126038.048985,-0.044527,0.056884,-0.417169,-0.077148,0.042236,-0.998047,0.998226,0.007516,0.016887,-0.056597,0.272843,0.066116,-0.959770,-0.005100,0.750680,1.980770,-6.477172,176.914995,-31.537703,-171.247204,5.123902,0.540354,-9.365111,0,0.003452335,0
1786126038.068998,-0.046524,0.055685,-0.419966,-0.074951,0.044678,-0.999756,0.998098,0.007582,0.017282,-0.058682,0.274553,0.065986,-0.959291,-0.005309,0.751449,2.027982,-6.716264,176.871122,-31.739013,-171.240367,5.151304,0.546863,-9.352269,0,0.003455792,0
1786126038.089352,-0.045858,0.052623,-0.423428,-0.072998,0.044678,-0.999512,0.997966,0.007653,0.017650,-0.060784,0.276549,0.066019,-0.958714,-0.005504,0.752759,2.072143,-6.957325,176.819155,-31.974076,-171.209861,5.183360,0.553528,-9.333749,0,0.003472918,0
1786126038.108989,-0.041464,0.048628,-0.426490,-0.070801,0.042725,-1.000000,0.997828,0.007747,0.017986,-0.062901,0.278797,0.065798,-0.958077,-0.005600,0.756659,2.112931,-7.200138,176.786085,-32.241003,-171.213429,5.219926,0.555772,-9.312365,0,0.003455302,0
1786126038.129027,-0.036138,0.043834,-0.428088,-0.070312,0.042480,-1.001709,0.997685,0.007865,0.018297,-0.065026,0.281091,0.065703,-0.957413,-0.005674,0.763426,2.150942,-7.443880,176.750328,-32.513232,-171.200537,5.258799,0.559359,-9.288852,0,0.003459047,0
1786126038.148977,-0.026817,0.038774,-0.430485,-0.069336,0.045410,-1.003174,0.997537,0.008030,0.018570,-0.067164,0.283495,0.065961,-0.956686,-0.005673,0.775598,2.185021,-7.689001,176.709104,-32.798277,-171.142986,5.299041,0.564584,-9.263752,0,0.003458191,0
1786126038.169186,-0.016031,0.032782,-0.434613,-0.069092,0.047119,-1.003906,0.997383,0.008248,0.018800,-0.069323,0.286012,0.066464,-0.955902,-0.005624,0.793929,2.214807,-7.936504,176.662608,-33.096497,-171.053367,5.340878,0.570097,-9.236228,0,0.003468554,0
1786126038.189027,-0.005644,0.027589,-0.440738,-0.069092,0.048584,-1.003174,0.997223,0.008516,0.018990,-0.071513,0.288708,0.067064,-0.955049,-0.005512,0.818213,2.240362,-8.187528,176.617160,-33.416584,-170.950796,5.385269,0.574860,-9.205839,0,0.003460677,0
1786126038.208957,0.001413,0.021996,-0.447529,-0.068604,0.044678,-0.999512,0.997055,0.008818,0.019135,-0.073737,0.291683,0.067288,-0.954130,-0.005403,0.846510,2.261322,-8.442462,176.581761,-33.771336,-170.894180,5.433425,0.575785,-9.170868,0,0.003458542,0
1786126038.228961,0.000747,0.016270,-0.452722,-0.069092,0.039307,-1.000977,0.996881,0.009114,0.019248,-0.075986,0.294765,0.067000,-0.953203,-0.005351,0.874276,2.278685,-8.700403,176.557497,-34.140486,-170.901328,5.484723,0.574770,-9.139219,0,0.003460047,0
1786126038.249406,-0.001783,0.010944,-0.455386,-0.069824,0.034180,-1.003418,0.996702,0.009395,0.019338,-0.078249,0.297832,0.066351,-0.952294,-0.005370,0.900410,2.293537,-8.959905,176.538631,-34.508974,-170.953301,5.536565,0.573276,-9.107306,0,0.003480067,0
1786126038.269090,-0.009506,0.005485,-0.456051,-0.070312,0.033203,-1.005371,0.996518,0.009635,0.019409,-0.080514,0.300808,0.065599,-0.951411,-0.005422,0.921973,2.305897,-9.219830,176.521468,-34.866925,-171.018868,5.587665,0.572677,-9.075903,0,0.003462636,0
1786126038.288985,-0.017895,-0.001573,-0.458182,-0.070557,0.034424,-1.006592,0.996329,0.009830,0.019445,-0.082788,0.303771,0.065182,-0.950497,-0.005560,0.938687,2.313891,-9.481032,176.479099,-35.221701,-171.036045,5.637566,0.576735,-9.044783,0,0.003458547,0
1786126038.309467,-0.027083,-0.007299,-0.460446,-0.072266,0.037598,-1.006348,0.996135,0.009977,0.019458,-0.085073,0.306608,0.065337,-0.949573,-0.005795,0.950016,2.318988,-9.743582,176.400756,-35.558620,-170.973193,5.685493,0.587427,-9.012061,0,0.003480452,0
1786126038.329415,-0.032809,-0.013291,-0.466438,-0.072510,0.043457,-1.003906,0.995934,0.010093,0.019426,-0.087387,0.309621,0.066105,-0.948540,-0.006019,0.958127,2.318692,-10.009614,176.293583,-35.914716,-170.825200,5.734180,0.602504,-8.977622,0,0.003474200,0
1786126038.349200,-0.032010,-0.017152,-0.475359,-0.072998,0.049316,-1.000000,0.995724,0.010208,0.019353,-0.089745,0.312942,0.067528,-0.947348,-0.006219,0.966607,2.313801,-10.280793,176.154489,-36.305514,-170.584390,5.786687,0.621745,-8.937628,0,0.003462530,0
1786126038.369277,-0.027216,-0.019815,-0.487344,-0.074219,0.051758,-0.997314,0.995504,0.010343,0.019242,-0.092162,0.316657,0.069288,-0.945984,-0.006406,0.977518,2.304868,-10.558876,175.992633,-36.742310,-170.290476,5.844514,0.642790,-8.893747,0,0.003466213,0
1786126038.389294,-0.018294,-0.021280,-0.501192,-0.074951,0.053711,-0.994141,0.995272,0.010514,0.019091,-0.094649,0.320929,0.071258,-0.944396,-0.006535,0.992916,2.291940,-10.844934,175.815942,-37.245891,-169.959470,5.910219,0.664588,-8.842878,0,0.003466425,0
1786126038.409257,-0.008574,-0.021946,-0.517437,-0.073975,0.054443,-0.991943,0.995026,0.010719,0.018893,-0.097217,0.326061,0.073301,-0.942479,-0.006620,1.012569,2.274204,-11.140361,175.621622,-37.853264,-169.603559,5.987889,0.686729,-8.785050,0,0.003464279,0
1786126038.429257,0.003543,-0.021280,-0.536878,-0.074707,0.054932,-0.991699,0.994764,0.010966,0.018658,-0.099882,0.332077,0.075442,-0.940207,-0.006671,1.037338,2.252926,-11.446999,175.404135,-38.567477,-169.216101,6.079479,0.710345,-8.716575,0,0.003464248,0
1786126038.449204,0.015395,-0.018883,-0.557917,-0.077393,0.055664,-0.995361,0.994483,0.011255,0.018403,-0.102652,0.338889,0.077682,-0.937590,-0.006701,1.067000,2.230146,-11.765747,175.160132,-39.378202,-168.794645,6.184242,0.736056,-8.639094,0,0.003461937,0
1786126038.469199,0.019123,-0.016753,-0.578557,-0.081299,0.054688,-0.995361,0.994184,0.011545,0.018135,-0.105524,0.346404,0.079862,-0.934655,-0.006788,1.096822,2.206194,-12.096379,174.885297,-40.274710,-168.355871,6.299696,0.763674,-8.548017,0,0.003462251,0
1786126038.489888,0.011932,-0.015554,-0.595601,-0.083252,0.054443,-0.993652,0.993868,0.011781,0.017859,-0.108479,0.354636,0.082198,-0.931358,-0.007043,1.120649,2.180947,-12.436842,174.548488,-41.256290,-167.859223,6.424853,0.798020,-8.447086,0,0.003492116,0
1786126038.509248,0.007538,-0.014090,-0.611979,-0.081055,0.049316,-0.992676,0.993536,0.011963,0.017564,-0.111515,0.363924,0.083691,-0.927633,-0.007266,1.138471,2.153090,-12.786810,174.220541,-42.373393,-167.447717,6.564544,0.825516,-8.333722,0,0.003457923,0
1786126038.529425,-0.005112,-0.012891,-0.625295,-0.079102,0.040039,-0.992432,0.993187,0.012044,0.017257,-0.114615,0.374061,0.084543,-0.923510,-0.007693,1.144960,2.122691,-13.144552,173.860115,-43.598311,-167.081204,6.716407,0.853893,-8.206147,0,0.003466979,0
1786126038.549212,-0.021091,-0.013424,-0.635548,-0.078125,0.033447,-0.988037,0.992824,0.012015,0.016941,-0.117764,0.384781,0.084847,-0.919063,-0.008202,1.139195,2.090014,-13.508293,173.484864,-44.901010,-166.756467,6.876899,0.881104,-8.059772,0,0.003457197,0
1786126038.569247,-0.043594,-0.012625,-0.645669,-0.074951,0.032715,-0.989258,0.992447,0.011858,0.016637,-0.120960,0.396181,0.085437,-0.914146,-0.008889,1.118799,2.056827,-13.877889,173.022372,-46.287350,-166.335688,7.045732,0.916404,-7.908168,0,0.003460380,0
1786126038.589257,-0.064367,-0.009562,-0.653791,-0.072266,0.029541,-0.993652,0.992056,0.011581,0.016353,-0.124194,0.408056,0.085996,-0.908846,-0.009676,1.084569,2.024314,-14.252177,172.501227,-47.736185,-165.867642,7.219588,0.954122,-7.743837,0,0.003461730,0
1786126038.609213,-0.085939,-0.005967,-0.660848,-0.071533,0.031982,-0.993164,0.991650,0.011197,0.016101,-0.127460,0.420188,0.087141,-0.903182,-0.010545,1.037885,1.993594,-14.630476,171.878655,-49.215692,-165.253496,7.393956,0.999628,-7.562099,0,0.003460411,0
1786126038.629212,-0.101252,-0.000374,-0.669371,-0.070068,0.031738,-0.995605,0.991228,0.010731,0.015884,-0.130766,0.432708,0.088617,-0.897095,-0.011452,0.981452,1.965378,-15.013641,171.160400,-50.744367,-164.518401,7.568920,1.049172,-7.371358,0,0.003461267,0
1786126038.649403,-0.111106,0.005218,-0.679890,-0.068115,0.036133,-0.989990,0.990788,0.010217,0.015701,-0.134121,0.445867,0.090972,-0.890378,-0.012383,0.919247,1.940024,-15.402791,170.276453,-52.347210,-163.544734,7.745947,1.108280,-7.158543,0,0.003470123,0
1786126038.669297,-0.113502,0.012276,-0.693605,-0.067383,0.041260,-0.988525,0.990326,0.009695,0.015555,-0.137543,0.459674,0.094121,-0.882987,-0.013222,0.855547,1.918396,-15.799752,169.219072,-54.026010,-162.322933,7.926725,1.174502,-6.930164,0,0.003464139,0
1786126038.689199,-0.107510,0.014672,-0.707321,-0.071777,0.047119,-0.997314,0.989842,0.009208,0.015419,-0.141032,0.473509,0.098135,-0.875193,-0.013989,0.795703,1.898058,-16.204552,167.973793,-55.697909,-160.833635,8.103163,1.249584,-6.691440,0,0.003459937,0
1786126038.709128,-0.121891,0.009213,-0.716775,-0.071533,0.049561,-1.000000,0.989340,0.008642,0.015265,-0.144565,0.487419,0.102468,-0.867008,-0.014840,0.727241,1.874056,-16.614839,166.528445,-57.367991,-159.124985,8.272833,1.330804,-6.446393,0,0.003457931,0
1786126038.729286,-0.133876,-0.002505,-0.721968,-0.072021,0.047119,-1.008789,0.988822,0.007997,0.015059,-0.148122,0.500978,0.106626,-0.858722,-0.015771,0.650919,1.842411,-17.028229,164.935144,-58.985585,-157.289565,8.430935,1.413288,-6.198434,0,0.003466196,0
1786126038.749291,-0.142531,-0.013690,-0.725031,-0.073730,0.047363,-1.017578,0.988290,0.007298,0.014804,-0.151692,0.513974,0.110816,-0.850454,-0.016669,0.569409,1.803641,-17.443459,163.196634,-60.520115,-155.302203,8.575362,1.495853,-5.948530,0,0.003465880,0
1786126038.769257,-0.148124,-0.022878,-0.729558,-0.075928,0.053711,-1.014648,0.987742,0.006569,0.014508,-0.155283,0.526612,0.115744,-0.842007,-0.017541,0.485567,1.759285,-17.861305,161.195211,-61.977283,-152.986963,8.706902,1.585534,-5.689793,0,0.003464004,0
1786126038.789640,-0.145860,-0.030601,-0.736482,-0.076172,0.060303,-1.012207,0.987174,0.005848,0.014174,-0.158908,0.539193,0.121580,-0.833157,-0.018433,0.403630,1.710085,-18.283130,158.830262,-63.377948,-150.233640,8.829292,1.686521,-5.429618,0,0.003480390,0
1786126038.809357,-0.142131,-0.036460,-0.743673,-0.075684,0.067627,-1.008057,0.986588,0.005144,0.013808,-0.162566,0.551758,0.128072,-0.823890,-0.019121,0.324519,1.657142,-18.709066,156.120001,-64.726247,-147.063275,8.944218,1.792413,-5.161790,0,0.003464266,0
1786126038.828958,-0.122824,-0.042719,-0.753127,-0.075684,0.068359,-1.005615,0.985979,0.004524,0.013395,-0.166270,0.564411,0.134817,-0.814173,-0.019671,0.255980,1.599781,-19.140442,153.036004,-66.029229,-143.486874,9.050528,1.901221,-4.884809,0,0.003447222,0
1786126038.849139,-0.100187,-0.049909,-0.760051,-0.075195,0.062256,-1.005371,0.985350,0.003992,0.012924,-0.170009,0.577056,0.141383,-0.804120,-0.020218,0.199043,1.537203,-19.575831,149.573987,-67.268735,-139.547031,9.146396,2.011345,-4.600912,0,0.003459098,0
1786126038.869114,-0.071558,-0.056833,-0.761383,-0.072266,0.048828,-0.998779,0.984705,0.003570,0.012391,-0.173755,0.589735,0.146912,-0.793856,-0.020547,0.156204,1.469434,-20.012051,145.853205,-68.480413,-135.416384,9.233242,2.108517,-4.302067,0,0.003459268,0
1786126038.889150,-0.044127,-0.062559,-0.757921,-0.071777,0.035156,-0.994141,0.984048,0.003256,0.011805,-0.177483,0.602001,0.151525,-0.783712,-0.020749,0.127141,1.397533,-20.446341,141.918598,-69.603392,-131.136031,9.308086,2.194620,-3.998556,0,0.003461977,0
1786126038.909223,-0.025618,-0.067220,-0.748200,-0.072510,0.023926,-0.996094,0.983385,0.003012,0.011179,-0.181162,0.613311,0.155432,-0.774115,-0.020876,0.107404,1.322443,-20.875098,137.906123,-70.571508,-126.827430,9.368235,2.271015,-3.708114,0,0.003465623,0
1786126038.929146,-0.006976,-0.069350,-0.737148,-0.075684,0.019043,-0.999756,0.982718,0.002853,0.010527,-0.184786,0.623405,0.159282,-0.765218,-0.020897,0.098370,1.245924,-21.297526,133.896124,-71.338382,-122.513888,9.413331,2.342147,-3.436147,0,0.003461946,0
1786126038.949097,0.003677,-0.069350,-0.723699,-0.079346,0.020996,-1.003906,0.982050,0.002753,0.009863,-0.188342,0.632082,0.163747,-0.757115,-0.020891,0.096979,1.169457,-21.712221,129.976423,-71.855739,-118.233884,9.442521,2.416846,-3.192008,0,0.003460412,0
1786126038.969011,0.019389,-0.069750,-0.714112,-0.083008,0.026123,-1.010010,0.981378,0.002745,0.009182,-0.191849,0.639528,0.169125,-0.749645,-0.020826,0.106892,1.093047,-22.121391,126.194820,-72.137062,-114.007963,9.459643,2.499369,-2.979652,0,0.003457637,0
1786126038.989126,0.039230,-0.072946,-0.706389,-0.088379,0.028564,-1.007568,0.980700,0.002843,0.008467,-0.195316,0.645842,0.175212,-0.742805,-0.020728,0.130044,1.015165,-22.526129,122.676852,-72.214259,-109.981013,9.462809,2.589396,-2.786342,0,0.003464130,0
1786126039.009009,0.057606,-0.077073,-0.700796,-0.089600,0.025879,-0.993408,0.980014,0.003025,0.007712,-0.198754,0.651602,0.181259,-0.736300,-0.020539,0.164125,0.935063,-22.927697,119.374182,-72.195163,-106.163242,9.461533,2.678409,-2.608308,0,0.003459155,0
1786126039.028991,0.071454,-0.078405,-0.695470,-0.089600,0.023193,-0.977051,0.979322,0.003272,0.006938,-0.202164,0.656920,0.187292,-0.730043,-0.020350,0.206452,0.854393,-23.326254,116.263567,-72.089454,-102.536731,9.455919,2.767410,-2.441995,0,0.003459588,0
1786126039.048959,0.072120,-0.077073,-0.689344,-0.092285,0.019531,-0.972168,0.978623,0.003518,0.006169,-0.205542,0.661447,0.193057,-0.724436,-0.020217,0.249278,0.774670,-23.721340,113.563091,-71.905642,-99.345258,9.442691,2.854035,-2.300608,0,0.003459334,0
1786126039.069058,0.061734,-0.072679,-0.682021,-0.096191,0.015625,-0.979248,0.977919,0.003713,0.005432,-0.208880,0.664944,0.198467,-0.719758,-0.020208,0.286137,0.697608,-24.112255,111.407670,-71.654665,-96.736400,9.422945,2.936669,-2.193324,0,0.003464754,0
1786126039.089210,0.042559,-0.066554,-0.676029,-0.099121,0.013184,-0.990967,0.977210,0.003817,0.004745,-0.212186,0.667548,0.203565,-0.715911,-0.020330,0.312124,0.624176,-24.499745,109.733808,-71.357591,-94.644295,9.401486,3.014805,-2.118552,0,0.003471070,0
1786126039.109632,0.014862,-0.058298,-0.669237,-0.101807,0.011230,-0.995605,0.976498,0.003791,0.004128,-0.215455,0.669350,0.208393,-0.712823,-0.020630,0.322333,0.555507,-24.883331,108.484085,-71.024648,-93.011967,9.376648,3.089798,-2.061418,0,0.003487382,0
1786126039.129249,-0.017496,-0.048844,-0.663245,-0.102783,0.007812,-0.991943,0.975781,0.003607,0.003592,-0.218692,0.670678,0.212473,-0.710358,-0.020909,0.313324,0.492084,-25.263462,107.546267,-70.727261,-91.752005,9.354147,3.153442,-2.016864,0,0.003465286,0
1786126039.149117,-0.055312,-0.036727,-0.656321,-0.103271,0.007568,-0.979492,0.975061,0.003250,0.003157,-0.221892,0.671568,0.216398,-0.708316,-0.021377,0.282917,0.435433,-25.639575,106.830147,-70.409441,-90.741304,9.331248,3.215395,-1.977087,0,0.003459346,0
1786126039.169332,-0.091798,-0.024210,-0.649796,-0.102783,0.006836,-0.964844,0.974338,0.002727,0.002824,-0.225057,0.672143,0.220177,-0.706585,-0.022003,0.231610,0.385628,-26.011902,106.273480,-70.078898,-89.914531,9.308124,3.276982,-1.945581,0,0.003469687,0
1786126039.189210,-0.127085,-0.010228,-0.643005,-0.102295,0.007812,-0.958252,0.973612,0.002050,0.002598,-0.228186,0.672351,0.223906,-0.705194,-0.022611,0.160757,0.343460,-26.380289,105.902381,-69.743328,-89.275265,9.285514,3.335740,-1.929373,0,0.003463108,0
1786126039.209002,-0.158909,0.003754,-0.636347,-0.102783,0.010010,-0.960693,0.972883,0.001242,0.002476,-0.231280,0.672075,0.227824,-0.704182,-0.023233,0.072890,0.308907,-26.744829,105.743509,-69.380495,-88.832438,9.261135,3.395366,-1.930744,0,0.003454521,0
1786126039.229105,-0.183544,0.018800,-0.629290,-0.105225,0.011719,-0.972412,0.972152,0.000342,0.002454,-0.234338,0.671155,0.232029,-0.703664,-0.023901,-0.027839,0.282533,-27.105319,105.847457,-68.978056,-88.630641,9.232056,3.457849,-1.951579,0,0.003461256,0
1786126039.249378,-0.200987,0.032649,-0.623032,-0.105225,0.015625,-0.987549,0.971418,-0.000612,0.002519,-0.237362,0.669739,0.236651,-0.703452,-0.024525,-0.136628,0.263784,-27.462245,106.136545,-68.536407,-88.573639,9.203587,3.523513,-1.991061,0,0.003473592,0
1786126039.269653,-0.207778,0.046098,-0.615974,-0.104248,0.020020,-0.996582,0.970681,-0.001565,0.002658,-0.240351,0.667883,0.241667,-0.703495,-0.025001,-0.247311,0.252533,-27.815181,106.584541,-68.066789,-88.628447,9.173328,3.590867,-2.034930,0,0.003482983,0
1786126039.289362,-0.205914,0.057283,-0.609050,-0.103516,0.021729,-0.993896,0.969943,-0.002490,0.002849,-0.243304,0.665656,0.246644,-0.703871,-0.025189,-0.356208,0.247218,-28.164230,107.187689,-67.615073,-88.817096,9.141880,3.652654,-2.077767,0,0.003465902,0
1786126039.309686,-0.192731,0.066604,-0.602658,-0.101562,0.024170,-0.986328,0.969202,-0.003334,0.003069,-0.246225,0.663177,0.251793,-0.704383,-0.025318,-0.456931,0.246809,-28.509713,107.861049,-67.148077,-89.054754,9.110088,3.714780,-2.121920,0,0.003479321,0
1786126039.329439,-0.171559,0.074993,-0.596134,-0.099854,0.026855,-0.977295,0.968460,-0.004060,0.003305,-0.249112,0.660411,0.256868,-0.705156,-0.025107,-0.544890,0.250871,-28.851559,108.649211,-66.706026,-89.384500,9.079039,3.769516,-2.171074,0,0.003465034,0
1786126039.349418,-0.144262,0.081385,-0.588810,-0.097656,0.028809,-0.974854,0.967719,-0.004643,0.003537,-0.251963,0.657362,0.261827,-0.706194,-0.024737,-0.617022,0.258227,-29.189306,109.534356,-66.276404,-89.806851,9.047486,3.819630,-2.232471,0,0.003463891,0
1786126039.369457,-0.111106,0.084980,-0.582552,-0.096436,0.030029,-0.981445,0.966978,-0.005063,0.003746,-0.254782,0.653967,0.266475,-0.707625,-0.024176,-0.670375,0.267251,-29.523543,110.550062,-65.873189,-90.369405,9.016061,3.861894,-2.309850,0,0.003465614,0
1786126039.389382,-0.074620,0.086178,-0.576160,-0.095947,0.031494,-0.995117,0.966237,-0.005304,0.003914,-0.257570,0.650151,0.270717,-0.709555,-0.023412,-0.702830,0.276767,-29.854165,111.726408,-65.499680,-91.109739,8.985469,3.894073,-2.403198,0,0.003462033,0
1786126039.409254,-0.036937,0.084447,-0.570168,-0.096191,0.031738,-1.008789,0.965497,-0.005369,0.004024,-0.260327,0.645917,0.274375,-0.712042,-0.022495,-0.714076,0.285094,-30.181365,113.065031,-65.161506,-92.048938,8.955732,3.914502,-2.507504,0,0.003457083,0
1786126039.429030,-0.000718,0.081251,-0.563643,-0.095459,0.031006,-1.015869,0.964759,-0.005269,0.004073,-0.263051,0.641395,0.277285,-0.715028,-0.021452,-0.705313,0.291406,-30.504814,114.527303,-64.868350,-93.165268,8.928989,3.921458,-2.616176,0,0.003449259,0
1786126039.449121,0.031507,0.074860,-0.557651,-0.092773,0.029785,-1.012451,0.964022,-0.005031,0.004048,-0.265744,0.636797,0.279448,-0.718319,-0.020381,-0.679074,0.293920,-30.824783,116.033749,-64.616283,-94.387708,8.906423,3.917142,-2.722314,0,0.003456777,0
1786126039.469098,0.057073,0.067004,-0.551659,-0.090820,0.026367,-1.004395,0.963286,-0.004696,0.003951,-0.268407,0.632177,0.280575,-0.721982,-0.019277,-0.639949,0.291721,-31.141257,117.594438,-64.425326,-95.751368,8.886800,3.898454,-2.826902,0,0.003457600,0
1786126039.488991,0.073718,0.057549,-0.545667,-0.091553,0.024414,-0.996582,0.962551,-0.004296,0.003787,-0.271039,0.627374,0.280899,-0.726062,-0.018214,-0.591485,0.284333,-31.454217,119.243375,-64.262373,-97.275777,8.868826,3.868396,-2.933558,0,0.003454684,0
1786126039.509133,0.081574,0.044500,-0.537411,-0.090820,0.017334,-0.999512,0.961821,-0.003908,0.003554,-0.273629,0.622466,0.279949,-0.730661,-0.017269,-0.542132,0.269191,-31.762367,120.988838,-64.152195,-99.016777,8.852477,3.824616,-3.056969,0,0.003463031,0
1786126039.528976,0.070522,0.030252,-0.527424,-0.088135,0.018555,-1.002197,0.961097,-0.003571,0.003265,-0.276168,0.617485,0.278438,-0.735468,-0.016470,-0.496574,0.246536,-32.064691,122.763004,-64.041168,-100.846213,8.842455,3.773128,-3.185600,0,0.003456610,0
1786126039.549032,0.069590,0.018934,-0.524228,-0.089111,0.016846,-1.011475,0.960371,-0.003255,0.002922,-0.278689,0.612482,0.276282,-0.740462,-0.015814,-0.451529,0.217628,-32.365121,124.557625,-63.935596,-102.763191,8.831182,3.716443,-3.318804,0,0.003460811,0
1786126039.569248,0.048285,0.005884,-0.517704,-0.090820,0.011719,-1.020996,0.959648,-0.003085,0.002551,-0.281176,0.607392,0.273105,-0.745823,-0.015386,-0.421426,0.181085,-32.661759,126.416600,-63.845666,-104.850913,8.818204,3.651025,-3.455929,0,0.003470873,0
1786126039.589119,0.021520,-0.007964,-0.509581,-0.091309,0.010742,-1.020508,0.958929,-0.003062,0.002150,-0.283622,0.602281,0.269244,-0.751357,-0.015117,-0.406326,0.136768,-32.953681,128.298427,-63.755494,-107.033013,8.808026,3.578453,-3.584966,0,0.003463705,0
1786126039.608994,-0.003381,-0.018883,-0.504920,-0.090820,0.010986,-1.012451,0.958210,-0.003169,0.001732,-0.286043,0.597370,0.264924,-0.756795,-0.015019,-0.404709,0.086311,-33.242887,130.117164,-63.664984,-109.205146,8.799951,3.503694,-3.704882,0,0.003458470,0
1786126039.629014,-0.039866,-0.030335,-0.497330,-0.089600,0.007812,-1.002197,0.957495,-0.003501,0.001319,-0.288425,0.592689,0.259802,-0.762229,-0.015142,-0.427771,0.029045,-33.527694,131.895165,-63.593486,-111.423762,8.791118,3.424830,-3.818907,0,0.003460692,0
1786126039.649078,-0.070359,-0.040854,-0.490273,-0.091309,0.010010,-0.994141,0.956784,-0.003984,0.000898,-0.290771,0.587966,0.254554,-0.767634,-0.015403,-0.466748,-0.034346,-33.808395,133.650510,-63.488304,-113.640497,8.781367,3.346526,-3.927321,0,0.003464249,0
1786126039.669294,-0.107510,-0.050708,-0.482417,-0.093018,0.009521,-0.993408,0.956077,-0.004689,0.000492,-0.293078,0.583211,0.248887,-0.773091,-0.015832,-0.530271,-0.103552,-34.084513,135.401533,-63.363627,-115.901540,8.768595,3.267290,-4.043969,0,0.003473416,0
1786126039.689194,-0.132810,-0.057233,-0.474960,-0.094971,0.012695,-1.000977,0.955374,-0.005515,0.000090,-0.295347,0.578364,0.243241,-0.778501,-0.016252,-0.606873,-0.176840,-34.356280,137.138691,-63.202908,-118.144626,8.755138,3.187942,-4.165836,0,0.003466859,0
1786126039.709064,-0.150787,-0.061494,-0.468701,-0.097168,0.014404,-1.006348,0.954674,-0.006446,-0.000302,-0.297585,0.573452,0.237589,-0.783853,-0.016665,-0.694947,-0.252841,-34.624372,138.853323,-63.010029,-120.363740,8.738651,3.109293,-4.285038,0,0.003460631,0
1786126039.729086,-0.163304,-0.063225,-0.462842,-0.099365,0.017334,-1.008301,0.953975,-0.007429,-0.000687,-0.299793,0.568452,0.232145,-0.789101,-0.017062,-0.788528,-0.330286,-34.889037,140.524677,-62.774125,-122.519062,8.719481,3.033440,-4.399977,0,0.003462429,0
1786126039.749298,-0.165967,-0.063758,-0.458182,-0.100830,0.019531,-1.003418,0.953277,-0.008416,-0.001073,-0.301977,0.563423,0.226915,-0.794205,-0.017387,-0.882221,-0.408451,-35.150969,142.143404,-62.505652,-124.596530,8.698000,2.959775,-4.507269,0,0.003471887,0
1786126039.769075,-0.160374,-0.062559,-0.451524,-0.101807,0.021973,-0.993408,0.952584,-0.009334,-0.001472,-0.304129,0.558330,0.221910,-0.799198,-0.017493,-0.967709,-0.486014,-35.409073,143.737996,-62.210844,-126.611486,8.674468,2.885204,-4.607192,0,0.003460485,0
1786126039.789062,-0.147325,-0.059497,-0.445532,-0.102051,0.023926,-0.982666,0.951895,-0.010125,-0.001882,-0.306251,0.553209,0.217205,-0.804038,-0.017470,-1.038440,-0.560602,-35.663796,145.277305,-61.886129,-128.533929,8.648706,2.812750,-4.705489,0,0.003460808,0
1786126039.809056,-0.126818,-0.055369,-0.437676,-0.104736,0.025391,-0.977051,0.951216,-0.010603,-0.002229,-0.308335,0.547801,0.212771,-0.808916,-0.017251,-1.077111,-0.617609,-35.914260,146.823077,-61.511029,-130.421884,8.617500,2.740238,-4.807082,0,0.003461342,0
1786126039.829042,-0.101651,-0.046580,-0.431151,-0.109375,0.026855,-0.977295,0.950547,-0.010846,-0.002200,-0.310385,0.542006,0.208616,-0.813895,-0.016836,-1.103281,-0.625426,-36.161082,148.384710,-61.074289,-132.283561,8.580685,2.667252,-4.918414,0,0.003461455,0
1786126039.849034,-0.069827,-0.036061,-0.423561,-0.114014,0.027344,-0.981201,0.949887,-0.010990,-0.002059,-0.312395,0.535800,0.204585,-0.819024,-0.016210,-1.122720,-0.617567,-36.403537,149.976490,-60.579024,-134.145088,8.538210,2.591643,-5.039299,0,0.003461738,0
1786126039.869030,-0.044527,-0.026340,-0.412509,-0.111084,0.028076,-0.984863,0.949241,-0.011000,-0.001910,-0.314351,0.529676,0.200462,-0.824027,-0.015430,-1.127868,-0.604008,-36.639755,151.525033,-60.082948,-135.958454,8.496796,2.512757,-5.168658,0,0.003462172,0
1786126039.889064,-0.010571,-0.015022,-0.407316,-0.110596,0.031006,-0.986328,0.948602,-0.010810,-0.001785,-0.316283,0.523609,0.196553,-0.828849,-0.014493,-1.110469,-0.585789,-36.873150,153.006315,-59.574493,-137.672812,8.454656,2.433849,-5.291339,0,0.003464072,0
1786126039.909045,0.017259,-0.004769,-0.401057,-0.110840,0.025146,-0.983398,0.947970,-0.010541,-0.001587,-0.318182,0.517600,0.191842,-0.833730,-0.013462,-1.087306,-0.556770,-37.102963,154.518903,-59.082919,-139.479431,8.409886,2.346291,-5.408263,0,0.003463287,0
1786126039.929178,0.037366,0.003887,-0.392402,-0.111328,0.025879,-0.978027,0.947349,-0.010165,-0.001379,-0.320040,0.511508,0.187051,-0.838581,-0.012413,-1.053033,-0.522506,-37.327901,155.993600,-58.565551,-141.252693,8.364760,2.257229,-5.521754,0,0.003469150,0
1786126039.949173,0.055608,0.015471,-0.386410,-0.110840,0.021729,-0.973633,0.946734,-0.009729,-0.001118,-0.321868,0.505584,0.181584,-0.843376,-0.011351,-1.014289,-0.480159,-37.549463,157.458930,-58.067516,-143.074010,8.319329,2.162159,-5.636242,0,0.003467705,0
1786126039.969402,0.064929,0.024526,-0.377888,-0.111084,0.020752,-0.973877,0.946130,-0.009245,-0.000824,-0.323655,0.499678,0.175856,-0.848109,-0.010356,-0.971840,-0.432219,-37.766212,158.879229,-57.556487,-144.878118,8.273041,2.066321,-5.752442,0,0.003476608,0
1786126039.989242,0.065062,0.034513,-0.370564,-0.111084,0.017578,-0.976318,0.945533,-0.008772,-0.000471,-0.325406,0.493920,0.169558,-0.852763,-0.009454,-0.932950,-0.378166,-37.978823,160.267157,-57.054309,-146.707338,8.226252,1.967298,-5.870295,0,0.003466669,0
1786126040.009189,0.061201,0.043568,-0.362042,-0.111816,0.014893,-0.981201,0.944947,-0.008322,-0.000063,-0.327117,0.488216,0.162906,-0.857340,-0.008683,-0.898792,-0.318773,-38.186609,161.606931,-56.543478,-148.529872,8.178250,1.868170,-5.987019,0,0.003463770,0
1786126040.029250,0.045488,0.051158,-0.353786,-0.112549,0.012451,-0.987061,0.944370,-0.007945,0.000410,-0.328788,0.482576,0.156003,-0.861811,-0.008105,-0.875258,-0.254957,-38.389718,162.878174,-56.021665,-150.322216,8.128831,1.771173,-6.104205,0,0.003466461,0
1786126040.049420,0.028710,0.058082,-0.344199,-0.111084,0.010986,-0.986572,0.943805,-0.007639,0.000945,-0.330412,0.477090,0.149030,-0.866093,-0.007690,-0.862024,-0.187067,-38.587391,164.063686,-55.498940,-152.049686,8.079513,1.677684,-6.212677,0,0.003473150,0
1786126040.069384,0.004476,0.064740,-0.335676,-0.109375,0.010742,-0.987061,0.943250,-0.007432,0.001550,-0.331996,0.471803,0.142168,-0.870135,-0.007453,-0.862299,-0.115206,-38.780246,165.145503,-54.979322,-153.680262,8.030130,1.589955,-6.319042,0,0.003469394,0
1786126040.089484,-0.019626,0.068735,-0.326888,-0.106934,0.006104,-0.984619,0.942706,-0.007355,0.002219,-0.333537,0.466732,0.135065,-0.873993,-0.007386,-0.879427,-0.041362,-38.968110,166.161302,-54.473415,-155.281347,7.980553,1.504956,-6.417689,0,0.003472350,0
1786126040.109364,-0.048122,0.068601,-0.311575,-0.110596,0.001709,-0.990967,0.942183,-0.007425,0.002938,-0.335005,0.461182,0.127796,-0.878023,-0.007451,-0.914503,0.032204,-39.147228,167.158902,-53.896260,-156.888936,7.923051,1.421572,-6.521181,0,0.003465176,0
1786126040.130070,-0.084740,0.061145,-0.291734,-0.113770,0.007080,-0.999023,0.941689,-0.007645,0.003677,-0.336377,0.454959,0.121462,-0.882156,-0.007750,-0.966738,0.102143,-39.314951,168.032223,-53.207208,-158.310414,7.855850,1.352136,-6.635009,0,0.003495077,0
1786126040.149449,-0.113103,0.054753,-0.276022,-0.111084,0.005615,-0.998535,0.941219,-0.008015,0.004436,-0.337674,0.448615,0.115089,-0.886248,-0.008024,-1.036222,0.168315,-39.473655,168.873566,-52.496904,-159.702236,7.783853,1.281658,-6.750806,0,0.003460935,0
1786126040.169450,-0.134941,0.043701,-0.246061,-0.106934,-0.001465,-1.000000,0.940796,-0.008538,0.005187,-0.338827,0.441979,0.108137,-0.890444,-0.008349,-1.121967,0.227666,-39.615136,169.722464,-51.749330,-161.156450,7.706080,1.208101,-6.866728,0,0.003461746,0
1786126040.189399,-0.148523,0.044766,-0.229150,-0.105469,-0.000000,-1.016846,0.940399,-0.009120,0.005966,-0.339899,0.435309,0.101679,-0.894479,-0.008633,-1.215270,0.287672,-39.746986,170.493569,-50.986212,-162.488577,7.625934,1.139829,-6.999648,0,0.003460170,0
1786126040.209342,-0.149455,0.041437,-0.201187,-0.100586,0.003906,-1.004150,0.940048,-0.009701,0.006730,-0.340839,0.428443,0.095830,-0.898430,-0.008763,-1.307979,0.346134,-39.862817,171.207861,-50.190041,-163.699395,7.543666,1.075657,-7.100433,0,0.003458709,0
1786126040.229272,-0.157178,0.026923,-0.166166,-0.098877,0.006104,-0.994141,0.939755,-0.010338,0.007441,-0.341612,0.420970,0.090209,-0.902535,-0.008805,-1.404729,0.396625,-39.958432,171.900938,-49.313845,-164.861709,7.451137,1.012626,-7.207062,0,0.003457022,0
1786126040.249243,-0.132544,0.022129,-0.133543,-0.103271,-0.006348,-1.019775,0.939518,-0.010908,0.008094,-0.342231,0.412882,0.083383,-0.906919,-0.008549,-1.492011,0.443612,-40.035346,172.704110,-48.372198,-166.213611,7.345079,0.932711,-7.354406,0,0.003457535,0
1786126040.269277,-0.141066,0.006150,-0.085606,-0.101562,0.000488,-1.000000,0.939362,-0.011526,0.008687,-0.342623,0.404165,0.077167,-0.911388,-0.008249,-1.582030,0.482596,-40.084570,173.439966,-47.343527,-167.442366,7.234209,0.859335,-7.466665,0,0.003460596,0
1786126040.289211,-0.099121,-0.008098,-0.039000,-0.103760,0.010254,-1.010742,0.939289,-0.011945,0.009141,-0.342797,0.394899,0.071940,-0.915872,-0.007541,-1.645078,0.514655,-40.106848,174.138368,-46.242195,-168.512946,7.109934,0.787921,-7.616066,0,0.003458654,0
1786126040.309511,-0.079813,-0.016886,-0.003713,-0.103516,0.011475,-1.005859,0.939278,-0.012287,0.009522,-0.342805,0.385422,0.066749,-0.920298,-0.006721,-1.696832,0.542256,-40.108764,174.811075,-45.113773,-169.546637,6.979734,0.715169,-7.756538,0,0.003472802,0
1786126040.329337,-0.037469,-0.023677,0.030375,-0.105713,0.011963,-1.008301,0.939328,-0.012439,0.009801,-0.342654,0.375733,0.061623,-0.924660,-0.005627,-1.724105,0.566555,-40.091028,175.481040,-43.960088,-170.549637,6.842647,0.638568,-7.905087,0,0.003463242,0
1786126040.349260,0.000081,-0.027405,0.065129,-0.104980,0.012207,-1.000732,0.939441,-0.012419,0.010000,-0.342341,0.366126,0.056497,-0.928838,-0.004360,-1.729628,0.589328,-40.053314,176.133127,-42.816443,-171.522006,6.704069,0.559729,-8.043970,0,0.003460159,0
1786126040.369215,0.031640,-0.031267,0.100283,-0.105713,0.011719,-0.993896,0.939615,-0.012257,0.010129,-0.341864,0.356605,0.051272,-0.932842,-0.002999,-1.716923,0.610480,-39.995398,176.763648,-41.682741,-172.475642,6.563661,0.479626,-8.179537,0,0.003459179,0
1786126040.389235,0.068391,-0.033131,0.131841,-0.106934,0.015381,-0.986572,0.939845,-0.011911,0.010186,-0.341241,0.347206,0.046459,-0.936636,-0.001536,-1.681487,0.631283,-39.919362,177.348885,-40.561905,-173.340875,6.422212,0.402898,-8.310756,0,0.003461244,0
1786126040.409214,0.093292,-0.032066,0.161669,-0.107666,0.010742,-0.986572,0.940127,-0.011458,0.010210,-0.340479,0.338141,0.041094,-0.940198,-0.000095,-1.633012,0.652929,-39.826285,177.923315,-39.481631,-174.249378,6.281345,0.322477,-8.443527,0,0.003461050,0
1786126040.429255,0.118059,-0.027272,0.190298,-0.107178,0.012451,-0.985107,0.940458,-0.010872,0.010215,-0.339584,0.329592,0.035926,-0.943439,0.001328,-1.569463,0.677788,-39.716891,178.450289,-38.461940,-175.097891,6.145631,0.246744,-8.567013,0,0.003463562,0
1786126040.449259,0.131775,-0.018750,0.217462,-0.106934,0.007812,-0.985352,0.940833,-0.010222,0.010241,-0.338562,0.321637,0.030252,-0.946376,0.002636,-1.499624,0.707513,-39.592105,178.954657,-37.512767,-175.983171,6.016576,0.170003,-8.681085,0,0.003463864,0
1786126040.469221,0.138832,-0.010361,0.246624,-0.106445,0.005615,-0.984863,0.941256,-0.009533,0.010297,-0.337403,0.314413,0.024416,-0.948964,0.003801,-1.426596,0.742077,-39.450763,179.418727,-36.649631,-176.859754,5.896668,0.097326,-8.783712,0,0.003462309,0
1786126040.489279,0.134305,-0.001306,0.273522,-0.106445,0.002930,-0.984619,0.941721,-0.008862,0.010406,-0.336118,0.307904,0.018434,-0.951227,0.004764,-1.357340,0.781663,-39.294166,179.838238,-35.870071,-177.727231,5.786834,0.029536,-8.873448,0,0.003465218,0
1786126040.509245,0.122587,0.006550,0.300819,-0.106934,0.001465,-0.982910,0.942228,-0.008241,0.010574,-0.334704,0.302129,0.012556,-0.953168,0.005492,-1.295580,0.825615,-39.122055,-179.797900,-35.176550,-178.554630,5.687507,-0.030478,-8.950066,0,0.003463514,0
1786126040.529238,0.103412,0.012675,0.326385,-0.106201,-0.000732,-0.983643,0.942774,-0.007716,0.010804,-0.333168,0.297217,0.006788,-0.954767,0.005977,-1.246274,0.872635,-38.935406,-179.486465,-34.584881,-179.345216,5.600335,-0.083133,-9.017428,0,0.003463373,0
1786126040.549229,0.075183,0.015871,0.353150,-0.104736,-0.003174,-0.983887,0.943360,-0.007341,0.011096,-0.331504,0.293306,0.001183,-0.955998,0.006197,-1.215360,0.920641,-38.733508,-179.228080,-34.112081,179.905017,5.528033,-0.127611,-9.071361,0,0.003463138,0
1786126040.569182,0.043491,0.018001,0.379649,-0.104980,-0.002197,-0.987793,0.943985,-0.007123,0.011450,-0.329713,0.290300,-0.003820,-0.956908,0.006176,-1.203402,0.969547,-38.516485,-179.032697,-33.747465,179.249112,5.470733,-0.160741,-9.115331,0,0.003461383,0
1786126040.589149,0.012066,0.020531,0.404682,-0.105469,-0.001221,-0.991211,0.944646,-0.007064,0.011867,-0.327800,0.288197,-0.008231,-0.957517,0.005965,-1.210767,1.019285,-38.285196,-178.889204,-33.491174,178.680805,5.428454,-0.185059,-9.147175,0,0.003460664,0
1786126040.609569,-0.015498,0.023328,0.426520,-0.105957,0.001953,-0.992188,0.945337,-0.007137,0.012342,-0.325782,0.286937,-0.011896,-0.957859,0.005643,-1.234188,1.070563,-38.041464,-178.790362,-33.336551,178.214740,5.400837,-0.201035,-9.166077,0,0.003479422,0
1786126040.629314,-0.039866,0.027056,0.448624,-0.104492,0.002686,-0.990723,0.946058,-0.007368,0.012860,-0.323657,0.286789,-0.014932,-0.957863,0.005217,-1.276118,1.120921,-37.785235,-178.727411,-33.315840,177.833051,5.390310,-0.211112,-9.173058,0,0.003464761,0
1786126040.649287,-0.055845,0.028255,0.469397,-0.104004,0.005371,-0.989746,0.946807,-0.007733,0.013380,-0.321432,0.287642,-0.017366,-0.957569,0.004808,-1.332222,1.166927,-37.517262,-178.682051,-33.415501,177.526491,5.397466,-0.217293,-9.169583,0,0.003463433,0
1786126040.669231,-0.069294,0.026790,0.491235,-0.103271,0.007812,-0.989746,0.947584,-0.008278,0.013788,-0.319103,0.289589,-0.019283,-0.956946,0.004430,-1.403513,1.194563,-37.236954,-178.647594,-33.646827,177.282249,5.422499,-0.221226,-9.156358,0,0.003461217,0
1786126040.689315,-0.074753,0.024393,0.511209,-0.102539,0.013184,-0.991699,0.948389,-0.008865,0.013925,-0.316680,0.292578,-0.020490,-0.956013,0.004144,-1.469183,1.191675,-36.945015,-178.623550,-34.003795,177.123469,5.465670,-0.222209,-9.134494,0,0.003465508,0
1786126040.709280,-0.069294,0.020665,0.527987,-0.102051,0.016846,-0.994873,0.949217,-0.009344,0.013911,-0.314177,0.296421,-0.021235,-0.954813,0.004006,-1.517678,1.176785,-36.643140,-178.593389,-34.463593,177.015574,5.524818,-0.224382,-9.104767,0,0.003463675,0
1786126040.729187,-0.057443,0.016404,0.544099,-0.101074,0.020264,-1.000488,0.950065,-0.009716,0.013818,-0.311595,0.301120,-0.021670,-0.953332,0.004039,-1.551638,1.157502,-36.331829,-178.547883,-35.026763,176.937487,5.598603,-0.228696,-9.069074,0,0.003459827,0
1786126040.749227,-0.035072,0.013474,0.559146,-0.101074,0.019287,-1.003662,0.950930,-0.009988,0.013678,-0.308942,0.306539,-0.022374,-0.951585,0.004300,-1.573083,1.136983,-36.011873,-178.455154,-35.676185,176.809048,5.685442,-0.241494,-9.023172,0,0.003462544,0
1786126040.769301,-0.014699,0.007748,0.578054,-0.100098,0.021240,-1.004150,0.951819,-0.010148,0.013469,-0.306197,0.312978,-0.023049,-0.949469,0.004736,-1.579902,1.113066,-35.680948,-178.331429,-36.449055,176.669304,5.786608,-0.257571,-8.965107,0,0.003466114,0
1786126040.789276,0.013797,0.000691,0.594832,-0.099365,0.023926,-1.002197,0.952727,-0.010162,0.013175,-0.303371,0.320289,-0.023599,-0.947011,0.005368,-1.567954,1.085116,-35.340260,-178.177857,-37.328257,176.529527,5.902700,-0.277255,-8.893822,0,0.003464562,0
1786126040.809252,0.041494,-0.006233,0.610678,-0.098145,0.023926,-1.000732,0.953653,-0.010051,0.012805,-0.300468,0.328461,-0.024362,-0.944183,0.006159,-1.539662,1.053292,-34.990383,-177.981708,-38.312792,176.342807,6.032454,-0.302983,-8.810622,0,0.003463409,0
1786126040.829251,0.069057,-0.012092,0.626124,-0.097656,0.024902,-0.998291,0.954594,-0.009807,0.012363,-0.297490,0.337417,-0.025228,-0.940990,0.007082,-1.494601,1.018080,-34.631555,-177.748936,-39.394424,176.122507,6.174385,-0.332512,-8.713469,0,0.003463550,0
1786126040.850101,0.098751,-0.016753,0.641704,-0.097412,0.023926,-0.998047,0.955551,-0.009426,0.011855,-0.294436,0.347144,-0.026622,-0.937398,0.008229,-1.432491,0.980086,-34.263739,-177.441317,-40.570706,175.800622,6.327297,-0.371867,-8.606462,0,0.003499970,0
1786126040.869416,0.122054,-0.019682,0.655286,-0.097168,0.023438,-0.999023,0.956519,-0.008935,0.011298,-0.291315,0.357478,-0.027831,-0.933461,0.009218,-1.356773,0.940151,-33.888103,-177.145648,-41.826014,175.493634,6.490348,-0.406288,-8.484823,0,0.003461893,0
1786126040.889455,0.147088,-0.023544,0.672463,-0.097412,0.020996,-1.000977,0.957502,-0.008330,0.010688,-0.288109,0.368562,-0.029677,-0.929071,0.010400,-1.267042,0.897688,-33.502593,-176.761416,-43.174582,175.059188,6.661883,-0.450914,-8.353363,0,0.003464089,0
1786126040.909519,0.158406,-0.025408,0.685379,-0.096680,0.019775,-1.000488,0.958493,-0.007670,0.010052,-0.284837,0.380312,-0.031793,-0.924240,0.011531,-1.170754,0.853684,-33.109671,-176.335845,-44.609047,174.556137,6.840760,-0.497315,-8.199460,0,0.003466807,0
1786126040.929430,0.163733,-0.027672,0.697497,-0.097168,0.017578,-1.001221,0.959489,-0.006988,0.009397,-0.281504,0.392555,-0.034196,-0.919007,0.012556,-1.071660,0.807847,-32.709799,-175.870430,-46.109273,173.979865,7.024829,-0.544812,-8.030078,0,0.003462369,0
1786126040.949255,0.158939,-0.031134,0.710813,-0.098633,0.013916,-0.999268,0.960491,-0.006337,0.008735,-0.278102,0.405327,-0.037026,-0.913323,0.013442,-0.975929,0.759490,-32.302285,-175.351109,-47.679795,173.301849,7.212245,-0.594292,-7.841852,0,0.003455324,0
1786126040.969472,0.145623,-0.035661,0.725327,-0.099609,0.011230,-0.997803,0.961500,-0.005755,0.008070,-0.274625,0.418779,-0.040300,-0.907082,0.014241,-0.888192,0.708024,-31.886434,-174.752715,-49.339629,172.500837,7.404010,-0.647140,-7.637160,0,0.003466729,0
1786126040.990041,0.126315,-0.040721,0.742637,-0.100586,0.009521,-0.998291,0.962520,-0.005273,0.007407,-0.271060,0.433097,-0.043920,-0.900153,0.014935,-0.811713,0.653207,-31.460642,-174.063310,-51.113894,171.572407,7.602462,-0.702582,-7.414886,0,0.003490400,0
1786126041.009448,0.100483,-0.046713,0.760081,-0.102051,0.007812,-1.000244,0.963548,-0.004922,0.006751,-0.267405,0.448208,-0.047428,-0.892539,0.015273,-0.750373,0.594582,-31.024829,-173.341647,-53.000287,170.593930,7.808091,-0.751280,-7.169420,0,0.003458603,0
1786126041.029398,0.071587,-0.052040,0.779123,-0.105225,0.006348,-1.001709,0.964587,-0.004717,0.006108,-0.263653,0.464104,-0.051371,-0.884152,0.015602,-0.706016,0.532643,-30.578087,-172.460647,-54.992207,169.421202,8.016548,-0.806342,-6.900597,0,0.003457813,0
1786126041.049263,0.042159,-0.058032,0.799496,-0.105225,0.006348,-1.001221,0.965636,-0.004661,0.005475,-0.259797,0.481186,-0.055417,-0.874722,0.015832,-0.678771,0.467128,-30.119642,-171.410007,-57.145674,168.065507,8.231959,-0.862981,-6.605876,0,0.003453593,0
1786126041.069455,0.014995,-0.062426,0.820269,-0.101807,0.009033,-0.994385,0.966696,-0.004736,0.004856,-0.255836,0.499892,-0.059457,-0.863895,0.016081,-0.667014,0.399071,-29.649270,-170.098154,-59.518799,166.454699,8.456530,-0.923321,-6.272922,0,0.003464386,0
1786126041.089281,0.001147,-0.060429,0.835981,-0.100098,0.013428,-0.988770,0.967759,-0.004869,0.004262,-0.251794,0.519599,-0.063037,-0.851925,0.016333,-0.662997,0.332196,-29.169909,-168.517880,-62.038116,164.617199,8.684154,-0.982299,-5.901395,0,0.003456880,0
1786126041.109327,-0.008707,-0.058564,0.849696,-0.099609,0.013672,-0.985596,0.968822,-0.005048,0.003691,-0.247680,0.539921,-0.066859,-0.838889,0.016721,-0.665138,0.266473,-28.682706,-166.463734,-64.639724,162.298661,8.905732,-1.048833,-5.499926,0,0.003460632,0
1786126041.129156,-0.015498,-0.055901,0.864610,-0.099365,0.018066,-0.980469,0.969884,-0.005250,0.003139,-0.243490,0.560885,-0.070368,-0.824719,0.017185,-0.671108,0.202418,-28.186973,-163.839721,-67.327940,159.443526,9.117922,-1.116348,-5.068901,0,0.003454192,0
1786126041.149121,-0.002582,-0.048578,0.876195,-0.100586,0.020508,-0.981201,0.970942,-0.005378,0.002607,-0.239239,0.581779,-0.073875,-0.809787,0.017906,-0.669869,0.142666,-27.684655,-160.376610,-69.982633,155.770228,9.313077,-1.189951,-4.620809,0,0.003455145,0
1786126041.169128,0.005008,-0.042319,0.891774,-0.102783,0.019531,-0.983887,0.972000,-0.005463,0.002097,-0.234909,0.602721,-0.077845,-0.793923,0.018807,-0.664932,0.086571,-27.173459,-155.604130,-72.573165,150.763088,9.488840,-1.272657,-4.156772,0,0.003457637,0
1786126041.189054,0.022585,-0.037792,0.910949,-0.104492,0.019043,-0.987549,0.973060,-0.005457,0.001589,-0.230480,0.623764,-0.082197,-0.777023,0.019920,-0.650483,0.033108,-26.651316,-148.869825,-75.034975,143.778629,9.645263,-1.364898,-3.679942,0,0.003456094,0
1786126041.209183,0.037499,-0.034330,0.935717,-0.103760,0.016113,-0.988281,0.974129,-0.005378,0.001082,-0.225926,0.645395,-0.087370,-0.758538,0.021286,-0.628325,-0.018388,-26.115015,-138.853944,-77.263047,133.464012,9.784031,-1.472763,-3.179740,0,0.003463554,0
1786126041.229142,0.057739,-0.028604,0.959285,-0.099365,0.023682,-0.984863,0.975203,-0.005186,0.000580,-0.221253,0.667703,-0.092182,-0.738346,0.022813,-0.594250,-0.066701,-25.565257,-124.387783,-79.047709,118.738867,9.899811,-1.583411,-2.644976,0,0.003461940,0
1786126041.249231,0.099684,-0.028870,0.982721,-0.095947,0.015137,-0.997314,0.976280,-0.004797,0.000031,-0.216460,0.689694,-0.098351,-0.716965,0.024710,-0.537474,-0.115492,-25.002086,-105.492353,-79.773078,99.498737,9.985787,-1.713437,-2.101266,0,0.003466273,0
1786126041.269233,0.101015,-0.029536,1.008021,-0.093262,0.020264,-0.993164,0.977360,-0.004398,-0.000522,-0.211537,0.712096,-0.104687,-0.693723,0.026616,-0.479928,-0.165086,-24.424430,-85.213278,-79.241288,78.856089,10.033285,-1.851923,-1.511416,0,0.003465805,0
1786126041.289195,0.141495,-0.032865,1.032123,-0.089355,0.019775,-0.995605,0.978441,-0.003804,-0.001134,-0.206491,0.734071,-0.111586,-0.669223,0.028801,-0.399718,-0.217175,-23.832972,-68.582741,-77.444617,61.830425,10.041849,-2.000503,-0.916688,0,0.003463754,0
1786126041.309185,0.155210,-0.029935,1.050632,-0.088623,0.028320,-0.994873,0.979513,-0.003134,-0.001747,-0.201347,0.755418,-0.118493,-0.643691,0.031064,-0.311472,-0.268359,-23.230947,-56.814119,-74.829199,49.662729,9.995835,-2.152861,-0.296949,0,0.003463427,0
1786126041.329211,0.197422,-0.018351,1.057689,-0.088379,0.034180,-0.987305,0.980566,-0.002241,-0.002345,-0.196163,0.775321,-0.125600,-0.618046,0.033503,-0.199056,-0.313913,-22.624942,-49.112597,-71.796110,41.549484,9.892213,-2.307021,0.318901,0,0.003464700,0
1786126041.349199,0.238834,0.001224,1.050499,-0.085938,0.036865,-0.979248,0.981584,-0.001123,-0.002889,-0.191008,0.793264,-0.133317,-0.593013,0.035967,-0.063071,-0.349558,-22.023110,-44.226701,-68.629374,36.192786,9.734210,-2.465677,0.913069,0,0.003464036,0
1786126041.369191,0.263601,0.018268,1.049434,-0.085938,0.022461,-0.976074,0.982572,0.000123,-0.003371,-0.185851,0.809328,-0.143380,-0.568293,0.038392,0.085657,-0.376995,-21.421880,-41.379054,-65.348437,32.662964,9.545262,-2.650884,1.464165,0,0.003463731,0
1786126041.389212,0.265465,0.030518,1.056757,-0.083252,0.025146,-0.972168,0.983539,0.001392,-0.003796,-0.180651,0.824246,-0.154380,-0.543257,0.040714,0.235438,-0.398978,-20.816411,-39.524349,-62.004379,30.021419,9.330586,-2.855317,1.978075,0,0.003464706,0
1786126041.410027,0.265998,0.043435,1.054227,-0.081299,0.022461,-0.975830,0.984474,0.002674,-0.004156,-0.175458,0.837377,-0.167166,-0.518642,0.043199,0.385214,-0.415141,-20.212310,-38.648253,-58.666446,28.201279,9.068021,-3.083453,2.460427,0,0.003499370,0
1786126041.429181,0.258674,0.055019,1.054360,-0.080811,0.019043,-0.987793,0.985382,0.003929,-0.004453,-0.170259,0.848510,-0.181331,-0.495117,0.044824,0.530505,-0.426229,-19.608024,-38.418375,-55.483927,26.816123,8.785738,-3.322799,2.884947,0,0.003454565,0
1786126041.449579,0.231377,0.060479,1.054094,-0.080566,0.013184,-1.000244,0.986260,0.005051,-0.004700,-0.165055,0.857684,-0.197847,-0.472275,0.046800,0.659821,-0.435645,-19.003788,-38.885728,-52.336006,25.926794,8.478644,-3.600295,3.259612,0,0.003473863,0
1786126041.469191,0.205145,0.064340,1.055426,-0.078125,0.014893,-1.004395,0.987112,0.006051,-0.004906,-0.159839,0.865073,-0.215609,-0.450371,0.048244,0.774343,-0.444131,-18.398699,-39.717255,-49.323654,25.215541,8.161321,-3.895724,3.578401,0,0.003454948,0
1786126041.489327,0.158007,0.065539,1.051697,-0.075195,0.009766,-1.004883,0.987935,0.006817,-0.005068,-0.154638,0.870461,-0.235617,-0.429324,0.049621,0.861646,-0.452970,-17.795676,-41.030283,-46.388801,24.743096,7.825402,-4.222054,3.853331,0,0.003462998,0
1786126041.509147,0.119258,0.060346,1.053029,-0.073486,0.011230,-1.000244,0.988731,0.007391,-0.005226,-0.149427,0.873906,-0.257020,-0.409466,0.050667,0.926952,-0.465586,-17.191892,-42.658398,-43.600348,24.389653,7.485339,-4.569434,4.060497,0,0.003455591,0
1786126041.529194,0.075449,0.052090,1.049034,-0.071289,0.010742,-0.996582,0.989499,0.007743,-0.005392,-0.144232,0.875074,-0.280163,-0.391273,0.051576,0.967173,-0.483442,-16.590444,-44.670322,-40.986844,24.205855,7.137416,-4.938355,4.202626,0,0.003459671,0
1786126041.549167,0.040961,0.042503,1.048235,-0.070068,0.013428,-0.999268,0.990240,0.007920,-0.005581,-0.139038,0.873838,-0.304624,-0.375337,0.052288,0.987747,-0.507083,-15.989533,-47.021698,-38.617033,24.181322,6.799648,-5.322676,4.255284,0,0.003459621,0
1786126041.569146,0.005807,0.029320,1.044640,-0.069580,0.014648,-1.007324,0.990952,0.007916,-0.005810,-0.133860,0.869879,-0.330472,-0.362365,0.052821,0.988098,-0.538338,-15.390802,-49.759251,-36.549454,24.363440,6.477612,-5.719073,4.219175,0,0.003459814,0
1786126041.589150,-0.019360,0.014939,1.042642,-0.069824,0.019043,-1.017334,0.991636,0.007780,-0.006094,-0.128689,0.863211,-0.357117,-0.352849,0.053211,0.974038,-0.577714,-14.793354,-52.830443,-34.831286,24.767624,6.187585,-6.118996,4.083132,0,0.003461048,0
1786126041.609114,-0.035738,-0.001972,1.037716,-0.069580,0.022461,-1.025391,0.992290,0.007555,-0.006450,-0.123541,0.853790,-0.384173,-0.347276,0.053415,0.950426,-0.626513,-14.198888,-56.221297,-33.501644,25.427585,5.937982,-6.512311,3.853389,0,0.003460265,0
1786126041.629070,-0.043861,-0.019949,1.035319,-0.069092,0.024170,-1.027832,0.992915,0.007278,-0.006891,-0.118402,0.841893,-0.411034,-0.345559,0.053438,0.921692,-0.685310,-13.605954,-59.860182,-32.542060,26.341231,5.741936,-6.890034,3.534862,0,0.003459314,0
1786126041.649180,-0.039866,-0.038324,1.030791,-0.069580,0.029785,-1.020752,0.993510,0.007014,-0.007425,-0.113283,0.827944,-0.436626,-0.347882,0.053337,0.895016,-0.754271,-13.015772,-63.639360,-31.970058,27.530151,5.593188,-7.233925,3.142369,0,0.003465221,0
1786126041.669224,-0.024553,-0.056034,1.026264,-0.068359,0.031494,-1.013672,0.994075,0.006817,-0.008055,-0.108184,0.812309,-0.460371,-0.354118,0.053031,0.876505,-0.833092,-12.428326,-67.502565,-31.767792,29.002092,5.503639,-7.533021,2.684644,0,0.003466800,0
1786126041.689224,-0.003647,-0.073345,1.021603,-0.068848,0.034668,-1.007080,0.994609,0.006717,-0.008782,-0.103105,0.795498,-0.481446,-0.364186,0.052556,0.869454,-0.921629,-11.843694,-71.368387,-31.925249,30.776172,5.466600,-7.775275,2.178123,0,0.003466119,0
1786126041.709222,0.026580,-0.088259,1.017209,-0.068604,0.038574,-1.006104,0.995113,0.006763,-0.009599,-0.098044,0.778052,-0.499198,-0.377802,0.051968,0.879249,-1.018635,-11.261715,-75.166076,-32.412826,32.860534,5.483444,-7.952551,1.635630,0,0.003465578,0
1786126041.729431,0.063598,-0.100909,1.010019,-0.071533,0.038574,-1.010254,0.995585,0.006990,-0.010496,-0.093016,0.760027,-0.513678,-0.394787,0.051358,0.909581,-1.122994,-10.683991,-78.939563,-33.184305,35.303060,5.541811,-8.066854,1.077685,0,0.003474114,0
1786126041.749171,0.100216,-0.113559,1.006956,-0.072754,0.036621,-1.015869,0.996027,0.007395,-0.011473,-0.087998,0.742272,-0.524349,-0.414172,0.050516,0.959965,-1.234961,-10.108184,-82.565353,-34.185951,38.004321,5.652377,-8.117359,0.512923,0,0.003460560,0
1786126041.769259,0.137900,-0.124211,1.002695,-0.075439,0.039795,-1.018555,0.996439,0.007988,-0.012518,-0.082998,0.725343,-0.530941,-0.435317,0.049787,1.031463,-1.353514,-9.535009,-85.978152,-35.354998,40.945078,5.786499,-8.104919,-0.028761,0,0.003465191,0
1786126041.789224,0.175184,-0.129804,0.998168,-0.076660,0.036621,-1.014404,0.996821,0.008765,-0.013606,-0.078015,0.709650,-0.533820,-0.457204,0.048972,1.123314,-1.476018,-8.964598,-89.143005,-36.628528,44.015594,5.947729,-8.042725,-0.527080,0,0.003463423,0
1786126041.809219,0.205012,-0.135264,0.994572,-0.078125,0.035400,-1.005127,0.997173,0.009692,-0.014733,-0.073046,0.695693,-0.533130,-0.479024,0.048156,1.231350,-1.602558,-8.396453,-91.990459,-37.963624,47.124629,6.121156,-7.936893,-0.972439,0,0.003463387,0
1786126041.829114,0.228314,-0.137261,0.990578,-0.078857,0.032715,-0.995361,0.997495,0.010735,-0.015877,-0.068093,0.683618,-0.529440,-0.500124,0.047292,1.351668,-1.731301,-7.830788,-94.512389,-39.324423,50.189428,6.301711,-7.799752,-1.357966,0,0.003459072,0
1786126041.849401,0.243627,-0.135663,0.985917,-0.081299,0.029785,-0.989502,0.997788,0.011856,-0.017018,-0.063159,0.673202,-0.523515,-0.520159,0.046541,1.479660,-1.860273,-7.267951,-96.758198,-40.663425,53.186012,6.476437,-7.644589,-1.685837,0,0.003472545,0
1786126041.869293,0.247090,-0.132867,0.983121,-0.083252,0.025879,-0.988281,0.998053,0.012994,-0.018145,-0.058237,0.664491,-0.515829,-0.538788,0.045603,1.608338,-1.988872,-6.706849,-98.724621,-41.989376,56.034755,6.653118,-7.475202,-1.965502,0,0.003465881,0
1786126041.889327,0.243228,-0.127274,0.979126,-0.085938,0.024658,-0.988037,0.998292,0.014115,-0.019242,-0.053333,0.657349,-0.506849,-0.555878,0.044681,1.733726,-2.115429,-6.148120,-100.429165,-43.276351,58.721413,6.818855,-7.299612,-2.194229,0,0.003466891,0
1786126041.909222,0.229646,-0.118885,0.974599,-0.088135,0.021240,-0.991455,0.998504,0.015169,-0.020293,-0.048449,0.651553,-0.497177,-0.571305,0.043643,1.850041,-2.238304,-5.591984,-101.908783,-44.513296,61.211140,6.978243,-7.124241,-2.379585,0,0.003461713,0
1786126041.929239,0.208873,-0.109564,0.971802,-0.090332,0.019043,-0.990723,0.998693,0.016120,-0.021292,-0.043580,0.647205,-0.487087,-0.584859,0.042579,1.953185,-2.356875,-5.037394,-103.125337,-45.689727,63.448127,7.127766,-6.952800,-2.521767,0,0.003463029,0
1786126041.949067,0.182907,-0.099444,0.965278,-0.091797,0.018799,-0.986572,0.998858,0.016944,-0.022234,-0.038743,0.644170,-0.476707,-0.596728,0.041377,2.040473,-2.470442,-4.486438,-104.099729,-46.830977,65.436092,7.266630,-6.784509,-2.620234,0,0.003455954,0
1786126041.969170,0.152814,-0.086794,0.960218,-0.093018,0.017090,-0.978516,0.999002,0.017618,-0.023106,-0.033932,0.642443,-0.466475,-0.606675,0.040184,2.109366,-2.577442,-3.938174,-104.805296,-47.903584,67.118436,7.396703,-6.627490,-2.679040,0,0.003462350,0
1786126041.989117,0.120723,-0.075076,0.953693,-0.093018,0.017334,-0.970215,0.999124,0.018134,-0.023913,-0.029156,0.641967,-0.456345,-0.614912,0.038878,2.158991,-2.678164,-3.393429,-105.246566,-48.939990,68.499221,7.518950,-6.477555,-2.703616,0,0.003460528,0
1786126042.009110,0.089031,-0.061893,0.946502,-0.093506,0.018066,-0.966553,0.999227,0.018495,-0.024648,-0.024417,0.642437,-0.446550,-0.621658,0.037554,2.189735,-2.771560,-2.852524,-105.471160,-49.925850,69.613364,7.632215,-6.337917,-2.701092,0,0.003461120,0
1786126042.029396,0.064796,-0.047113,0.938779,-0.095947,0.020996,-0.970215,0.999310,0.018739,-0.025304,-0.019717,0.643402,-0.437138,-0.627395,0.036325,2.206259,-2.856499,-2.315722,-105.569202,-50.857345,70.558329,7.733650,-6.208142,-2.684323,0,0.003474048,0
1786126042.049411,0.040162,-0.036593,0.930390,-0.094727,0.021240,-0.977295,0.999373,0.018862,-0.025905,-0.015062,0.644849,-0.428180,-0.632143,0.035042,2.208176,-2.935308,-1.783473,-105.540429,-51.745086,71.317194,7.833540,-6.085353,-2.658762,0,0.003472219,0
1786126042.069151,0.010734,-0.028204,0.928260,-0.094727,0.032471,-0.981689,0.999418,0.018847,-0.026459,-0.010420,0.647391,-0.418735,-0.635929,0.033761,2.193562,-3.009039,-1.252273,-105.247305,-52.666201,71.850588,7.930517,-5.959798,-2.617003,0,0.003459147,0
1786126042.089103,-0.007109,-0.023677,0.929858,-0.094238,0.037354,-0.997070,0.999443,0.018745,-0.026988,-0.005772,0.650657,-0.409637,-0.638572,0.032691,2.168371,-3.079956,-0.720035,-104.732872,-53.533072,72.136998,8.029888,-5.846139,-2.562843,0,0.003458301,0
1786126042.109129,-0.063701,-0.017152,0.939844,-0.079590,0.059814,-0.974365,0.999453,0.018371,-0.027481,-0.001081,0.657769,-0.398842,-0.638175,0.031575,2.111113,-3.146684,-0.181942,-103.216084,-54.523874,71.570962,8.143396,-5.725266,-2.437220,0,0.003460866,0
1786126042.129231,-0.076884,-0.006367,0.942907,-0.075684,0.043945,-0.976562,0.999443,0.017917,-0.027923,0.003624,0.665353,-0.390592,-0.635456,0.030630,2.044039,-3.207040,0.358276,-101.408027,-55.253094,70.472229,8.251091,-5.647269,-2.251653,0,0.003466003,0
1786126042.149135,-0.103516,0.001224,0.943440,-0.073242,0.051758,-0.985596,0.999414,0.017334,-0.028325,0.008328,0.673502,-0.382780,-0.631656,0.029746,1.961657,-3.262253,0.898979,-99.343637,-55.901124,69.072007,8.328174,-5.577043,-2.053931,0,0.003461438,0
1786126042.169204,-0.091531,-0.004635,0.950231,-0.075928,0.043945,-0.992920,0.999360,0.016802,-0.028758,0.013067,0.681298,-0.377003,-0.626774,0.029262,1.884545,-3.320358,1.443559,-97.243315,-56.302297,67.468673,8.393912,-5.535265,-1.853198,0,0.003465003,0
1786126042.189420,-0.071824,-0.004902,0.954492,-0.078857,0.058350,-1.005615,0.999281,0.016377,-0.029189,0.017828,0.688878,-0.371238,-0.621916,0.029144,1.819130,-3.377804,1.990562,-95.132298,-56.637749,65.878516,8.432616,-5.496556,-1.666327,0,0.003474011,0
1786126042.209117,0.002345,-0.008763,0.946902,-0.089844,0.056396,-1.012939,0.999173,0.016325,-0.029631,0.022561,0.694377,-0.366824,-0.618398,0.029405,1.796047,-3.436874,2.533159,-93.559629,-56.848730,64.730554,8.450199,-5.468680,-1.497801,0,0.003458684,0
1786126042.229114,0.082906,-0.016620,0.930390,-0.092041,0.063965,-1.012939,0.999037,0.016687,-0.030098,0.027223,0.698388,-0.362730,-0.616256,0.030160,1.820173,-3.499911,3.066090,-92.389161,-57.023272,63.996197,8.452994,-5.442015,-1.378291,0,0.003459852,0
1786126042.249042,0.160270,-0.016753,0.904025,-0.085693,0.074707,-0.974854,0.998876,0.017452,-0.030550,0.031763,0.702019,-0.357983,-0.614858,0.031097,1.890372,-3.562605,3.583796,-91.313954,-57.247920,63.432631,8.455088,-5.406944,-1.255342,0,0.003457833,0
1786126042.269156,0.271324,-0.009296,0.863545,-0.087402,0.069580,-0.979248,0.998692,0.018781,-0.030940,0.036117,0.703028,-0.354578,-0.615613,0.032354,2.025777,-3.620968,4.078336,-91.001430,-57.420207,63.537907,8.442474,-5.378102,-1.190286,0,0.003464229,0
1786126042.289130,0.322990,-0.010095,0.833052,-0.090088,0.058350,-0.993408,0.998488,0.020374,-0.031321,0.040328,0.702047,-0.352640,-0.617781,0.033503,2.191449,-3.680429,4.555312,-91.282919,-57.542883,64.096281,8.434231,-5.358936,-1.187405,0,0.003463096,0
1786126042.309160,0.359209,-0.014223,0.810681,-0.092529,0.060547,-0.997314,0.998263,0.022163,-0.031709,0.044432,0.700085,-0.350637,-0.621078,0.034582,2.379537,-3.742781,5.019214,-91.863256,-57.710976,64.955883,8.427198,-5.334724,-1.224781,0,0.003464641,0
1786126042.329117,0.396759,-0.013024,0.771666,-0.092285,0.063721,-1.014404,0.998023,0.024161,-0.032070,0.048346,0.696666,-0.348536,-0.626036,0.035474,2.592052,-3.804371,5.460556,-92.894133,-57.945953,66.262198,8.416870,-5.299608,-1.298040,0,0.003462669,0
1786126042.349104,0.388770,-0.015022,0.733316,-0.095703,0.053223,-1.028076,0.997775,0.026132,-0.032435,0.052067,0.691561,-0.347346,-0.632297,0.035986,2.801802,-3.867359,5.879710,-94.446524,-58.162106,67.976668,8.410542,-5.266763,-1.395096,0,0.003462481,0
1786126042.369135,0.367864,-0.017152,0.699361,-0.096191,0.048096,-1.023438,0.997520,0.028014,-0.032806,0.055615,0.685444,-0.346214,-0.639529,0.036115,3.001613,-3.931551,6.279164,-96.324483,-58.398847,69.979503,8.409295,-5.227181,-1.517675,0,0.003464166,0
1786126042.389138,0.326984,-0.020082,0.661145,-0.094238,0.041260,-1.009033,0.997266,0.029708,-0.033192,0.058964,0.678373,-0.345099,-0.647641,0.035759,3.180086,-3.997063,6.656460,-98.518148,-58.649763,72.255279,8.411314,-5.178294,-1.652947,0,0.003464303,0
1786126042.409179,0.261604,-0.023011,0.627589,-0.093506,0.030029,-0.987061,0.997017,0.031083,-0.033605,0.062135,0.670382,-0.344333,-0.656358,0.034885,3.322185,-4.064142,7.014338,-101.011084,-58.870062,74.753175,8.416948,-5.123361,-1.802243,0,0.003466011,0
1786126042.429147,0.187568,-0.025142,0.596430,-0.093750,0.023193,-0.972168,0.996779,0.032100,-0.034045,0.065138,0.661533,-0.343491,-0.665781,0.033511,3.423335,-4.131836,7.354185,-103.790759,-59.076250,77.500368,8.421377,-5.055911,-1.982132,0,0.003464168,0
1786126042.449106,0.094091,-0.025142,0.568467,-0.092773,0.025635,-0.968750,0.996554,0.032670,-0.034500,0.067984,0.652178,-0.341684,-0.675955,0.031635,3.473456,-4.198005,7.677847,-106.784515,-59.324199,80.504131,8.427945,-4.966594,-2.192153,0,0.003462380,0
1786126042.469125,-0.000451,-0.024343,0.538373,-0.092773,0.033936,-0.981445,0.996348,0.032798,-0.034958,0.070662,0.642331,-0.338324,-0.687086,0.029332,3.473292,-4.260795,7.984065,-110.025293,-59.635370,83.855755,8.436873,-4.848352,-2.430736,0,0.003463633,0
1786126042.489089,-0.083009,-0.026207,0.505749,-0.094971,0.035889,-1.006592,0.996159,0.032541,-0.035432,0.073160,0.631716,-0.333960,-0.699065,0.026705,3.429295,-4.321459,8.271354,-113.578239,-59.926635,87.576602,8.449234,-4.706751,-2.695930,0,0.003462237,0
1786126042.509389,-0.160507,-0.032732,0.481248,-0.094238,0.038574,-1.020752,0.995985,0.031915,-0.035949,0.075520,0.620919,-0.328341,-0.711394,0.023896,3.343114,-4.383352,8.544302,-117.276961,-60.197459,91.533841,8.465819,-4.545795,-2.968914,0,0.003475476,0
1786126042.529176,-0.218697,-0.037525,0.456481,-0.092773,0.043213,-1.013428,0.995822,0.031019,-0.036492,0.077744,0.610302,-0.320931,-0.723944,0.020986,3.225971,-4.445047,8.802824,-121.054818,-60.479379,95.715290,8.483567,-4.361394,-3.223207,0,0.003463604,0
1786126042.549120,-0.257047,-0.042053,0.436907,-0.092529,0.041260,-0.997314,0.995667,0.029941,-0.037065,0.079861,0.599865,-0.312524,-0.736316,0.018172,3.087962,-4.507568,9.050007,-124.845479,-60.694421,99.998536,8.501795,-4.166452,-3.463218,0,0.003461340,0
1786126042.569151,-0.283945,-0.045382,0.421460,-0.093262,0.044922,-0.984375,0.995515,0.028742,-0.037649,0.081893,0.589818,-0.302599,-0.748537,0.015523,2.936119,-4.569515,9.288222,-128.622253,-60.880455,104.409334,8.515102,-3.958611,-3.698382,0,0.003463308,0
1786126042.589083,-0.280216,-0.047246,0.404150,-0.093018,0.051025,-0.977783,0.995364,0.027576,-0.038222,0.083838,0.580350,-0.290862,-0.760539,0.013192,2.788331,-4.629535,9.516420,-132.351301,-61.054811,108.952499,8.526770,-3.737496,-3.929961,0,0.003460590,0
1786126042.609257,-0.257180,-0.052173,0.386440,-0.095947,0.060791,-0.993408,0.995212,0.026544,-0.038779,0.085696,0.571281,-0.277336,-0.772396,0.011267,2.656163,-4.688402,9.734242,-136.071650,-61.194622,113.670519,8.533716,-3.504796,-4.169523,0,0.003468890,0
1786126042.629156,-0.209376,-0.064690,0.365267,-0.100342,0.070312,-1.013428,0.995058,0.025771,-0.039347,0.087454,0.562486,-0.262212,-0.784065,0.009839,2.553792,-4.750209,9.939505,-139.777226,-61.269620,118.546628,8.536177,-3.263866,-4.404285,0,0.003463409,0
1786126042.649239,-0.142131,-0.078938,0.344628,-0.102539,0.076904,-1.024414,0.994897,0.025348,-0.039933,0.089119,0.554088,-0.245864,-0.795271,0.008974,2.491632,-4.817132,10.132520,-143.380268,-61.269250,123.465797,8.535294,-3.022964,-4.622813,0,0.003467130,0
1786126042.669182,-0.062103,-0.089857,0.321725,-0.102295,0.084473,-1.020752,0.994733,0.025337,-0.040516,0.090683,0.546233,-0.228108,-0.805929,0.008642,2.476915,-4.887556,10.312057,-146.865476,-61.223857,128.427162,8.530761,-2.781599,-4.814475,0,0.003463952,0
1786126042.689142,0.019256,-0.091454,0.298156,-0.103027,0.085205,-0.999756,0.994566,0.025740,-0.041047,0.092146,0.538621,-0.209748,-0.815976,0.008761,2.510367,-4.956105,10.477921,-150.207468,-61.083836,133.328153,8.521388,-2.547850,-4.971808,0,0.003462292,0
1786126042.709198,0.108738,-0.082400,0.270059,-0.104248,0.090576,-0.970947,0.994401,0.026593,-0.041461,0.093486,0.531097,-0.190417,-0.825585,0.009294,2.596911,-5.015730,10.627728,-153.460507,-60.855284,138.252026,8.502856,-2.317209,-5.111090,0,0.003465128,0
1786126042.729146,0.166396,-0.069350,0.246224,-0.106445,0.090576,-0.956787,0.994241,0.027731,-0.041757,0.094721,0.523469,-0.171326,-0.834583,0.009963,2.717814,-5.065050,10.764040,-156.546478,-60.498448,142.994300,8.477713,-2.094608,-5.256137,0,0.003462625,0
1786126042.749145,0.215265,-0.051640,0.219459,-0.109131,0.094238,-0.959473,0.994088,0.029108,-0.041918,0.095835,0.515689,-0.152503,-0.843026,0.010693,2.868059,-5.101472,10.885329,-159.459577,-60.021971,147.542745,8.441202,-1.879454,-5.415298,0,0.003462960,0
1786126042.769491,0.251484,-0.034729,0.190564,-0.112793,0.090332,-0.971191,0.993945,0.030661,-0.041954,0.096814,0.507539,-0.134989,-0.850912,0.011425,3.040409,-5.125474,10.990406,-162.103829,-59.390505,151.709270,8.393537,-1.681572,-5.582323,0,0.003478003,0
1786126042.789205,0.272922,-0.018750,0.160870,-0.116211,0.088867,-0.981445,0.993814,0.032317,-0.041878,0.097651,0.499054,-0.118597,-0.858334,0.011946,3.226353,-5.137692,11.078852,-164.524145,-58.635893,155.539048,8.333249,-1.495858,-5.751526,0,0.003462357,0
1786126042.809153,0.280512,-0.002771,0.125849,-0.117920,0.088867,-0.985840,0.993699,0.034006,-0.041699,0.098318,0.490278,-0.103084,-0.865361,0.012290,3.418195,-5.138235,11.147679,-166.733957,-57.779428,159.070620,8.262783,-1.321691,-5.916929,0,0.003460585,0
1786126042.829140,0.267862,0.014273,0.087899,-0.117432,0.088135,-0.981201,0.993606,0.035629,-0.041425,0.098796,0.481321,-0.088437,-0.871985,0.012314,3.604518,-5.126817,11.195313,-168.758201,-56.848937,162.319267,8.185116,-1.155846,-6.074989,0,0.003460907,0
1786126042.849150,0.241497,0.030918,0.048218,-0.116455,0.083496,-0.971680,0.993539,0.037119,-0.041067,0.099074,0.472225,-0.074950,-0.878204,0.011974,3.777550,-5.103649,11.220822,-170.584952,-55.855550,165.244945,8.100655,-0.999389,-6.228939,0,0.003462103,0
1786126042.869207,0.198886,0.046897,0.008537,-0.113281,0.076904,-0.965088,0.993501,0.038398,-0.040643,0.099149,0.463295,-0.062726,-0.883910,0.011224,3.928149,-5.069954,11.224231,-172.217867,-54.846650,167.839316,8.011806,-0.851524,-6.386655,0,0.003465046,0
1786126042.889191,0.146023,0.060612,-0.030611,-0.109619,0.072510,-0.962891,0.993492,0.039417,-0.040178,0.099021,0.454763,-0.051383,-0.889072,0.010067,4.050554,-5.027786,11.205793,-173.707735,-53.862006,170.185706,7.920722,-0.708133,-6.544940,0,0.003464129,0
1786126042.909286,0.085303,0.070998,-0.068295,-0.105713,0.070312,-0.968750,0.993515,0.040141,-0.039698,0.098696,0.446849,-0.040567,-0.893648,0.008540,4.140257,-4.979851,11.166232,-175.096582,-52.935654,172.359262,7.830751,-0.565750,-6.703861,0,0.003468173,0
1786126042.929197,0.021520,0.077789,-0.106911,-0.104248,0.070312,-0.981934,0.993569,0.040556,-0.039224,0.098169,0.439525,-0.029995,-0.897705,0.006693,4.195439,-4.928075,11.104877,-176.420291,-52.066567,174.423667,7.742647,-0.421759,-6.859399,0,0.003463370,0
1786126042.949357,-0.041863,0.080719,-0.143929,-0.102051,0.070801,-0.995605,0.993653,0.040663,-0.038776,0.097446,0.432916,-0.019552,-0.901211,0.004592,4.216156,-4.875120,11.022477,-177.691053,-51.271286,176.406181,7.659799,-0.276504,-7.005212,0,0.003470387,0
1786126042.969316,-0.102717,0.080319,-0.181613,-0.101318,0.073242,-1.002686,0.993767,0.040478,-0.038367,0.096526,0.426926,-0.009033,-0.904238,0.002328,4.203757,-4.822579,10.918495,-178.925132,-50.537818,178.347896,7.581991,-0.129579,-7.132686,0,0.003467059,0
1786126042.989137,-0.157844,0.077923,-0.220495,-0.101807,0.075439,-1.002930,0.993908,0.040028,-0.038004,0.095401,0.421521,0.001522,-0.906817,-0.000022,4.161476,-4.771459,10.792140,179.882425,-49.861239,-179.752957,7.509308,0.017237,-7.242742,0,0.003458698,0
1786126043.009114,-0.203650,0.074727,-0.258977,-0.100342,0.075195,-1.000000,0.994072,0.039358,-0.037690,0.094077,0.416935,0.011841,-0.908856,-0.002394,4.094442,-4.723053,10.643599,178.750808,-49.271642,-177.934305,7.444786,0.160312,-7.338898,0,0.003459075,0
1786126043.029163,-0.236541,0.069933,-0.296661,-0.100342,0.077637,-0.998779,0.994257,0.038533,-0.037428,0.092559,0.413124,0.022105,-0.910394,-0.004676,4.009880,-4.678222,10.473257,177.671712,-48.764361,-176.162736,7.388151,0.300010,-7.421842,0,0.003462394,0
1786126043.049127,-0.253318,0.062210,-0.333945,-0.099854,0.080566,-1.001221,0.994457,0.037633,-0.037227,0.090852,0.410179,0.032196,-0.911412,-0.006741,3.916782,-4.639054,10.281234,176.661481,-48.352685,-174.454589,7.341004,0.432993,-7.493812,0,0.003461292,0
1786126043.069289,-0.250256,0.051824,-0.371629,-0.101074,0.082520,-1.007080,0.994666,0.036754,-0.037089,0.088957,0.408030,0.041941,-0.911965,-0.008524,3.826372,-4.607082,10.067213,175.731485,-48.030666,-172.831114,7.303462,0.556399,-7.551892,0,0.003468861,0
1786126043.089221,-0.232413,0.041437,-0.408248,-0.101562,0.085693,-1.013428,0.994881,0.035969,-0.037012,0.086882,0.406793,0.051362,-0.912022,-0.009905,3.746840,-4.582504,9.831837,174.886290,-47.815831,-171.285290,7.277454,0.668435,-7.594446,0,0.003464788,0
1786126043.109251,-0.198724,0.029586,-0.444733,-0.103271,0.085205,-1.016846,0.995098,0.035355,-0.036995,0.084630,0.406441,0.060158,-0.911629,-0.010894,3.687017,-4.566240,9.575163,174.134591,-47.708941,-169.853620,7.263424,0.766165,-7.615560,0,0.003465934,0
1786126043.129177,-0.155714,0.019466,-0.480020,-0.103516,0.085205,-1.015869,0.995313,0.034955,-0.037028,0.082209,0.407193,0.068436,-0.910703,-0.011470,3.651915,-4.557336,9.297980,173.457501,-47.739311,-168.507398,7.264359,0.851058,-7.614757,0,0.003462326,0
1786126043.149137,-0.105912,0.009346,-0.514907,-0.103027,0.082520,-1.010254,0.995526,0.034798,-0.037111,0.079622,0.409245,0.076040,-0.909176,-0.011687,3.645027,-4.555842,9.000560,172.841653,-47.933972,-167.252760,7.282933,0.923140,-7.588794,0,0.003461020,0
1786126043.169110,-0.056777,0.000025,-0.545933,-0.103271,0.077881,-1.003418,0.995733,0.034879,-0.037236,0.076890,0.412533,0.082829,-0.907095,-0.011612,3.665776,-4.560906,8.685156,172.278148,-48.287234,-166.099921,7.319031,0.983656,-7.539273,0,0.003460632,0
1786126043.189115,-0.011637,-0.010095,-0.574163,-0.102051,0.072998,-0.999268,0.995933,0.035177,-0.037410,0.074025,0.417178,0.088823,-0.904403,-0.011335,3.711675,-4.572688,8.353350,171.739254,-48.814440,-165.028072,7.374026,1.035560,-7.472222,0,0.003461722,0
1786126043.209342,0.028577,-0.018750,-0.598797,-0.102051,0.066162,-0.998535,0.996125,0.035667,-0.037624,0.071043,0.422997,0.093927,-0.901183,-0.010945,3.779873,-4.589938,8.007246,171.216094,-49.494213,-164.044383,7.446037,1.080212,-7.386196,0,0.003471987,0
1786126043.229134,0.058937,-0.026740,-0.619703,-0.099609,0.058838,-1.001221,0.996308,0.036298,-0.037877,0.067962,0.430060,0.097947,-0.897410,-0.010482,3.864539,-4.612077,7.649002,170.707759,-50.338355,-163.168419,7.535919,1.116699,-7.285192,0,0.003461186,0
1786126043.249107,0.077446,-0.033131,-0.636614,-0.100098,0.049072,-1.003662,0.996481,0.037011,-0.038165,0.064800,0.437918,0.100878,-0.893280,-0.010096,3.958923,-4.637905,7.280947,170.205105,-51.290788,-162.402546,7.637598,1.147708,-7.164728,0,0.003460717,0
1786126043.269254,0.080642,-0.038458,-0.646734,-0.097412,0.040527,-1.002441,0.996645,0.037730,-0.038485,0.061588,0.446502,0.102891,-0.888792,-0.009863,4.054190,-4.666743,6.906991,169.683353,-52.341501,-161.712752,7.748624,1.175545,-7.029491,0,0.003467839,0
1786126043.289157,0.072253,-0.040588,-0.654191,-0.097412,0.034668,-0.999512,0.996802,0.038400,-0.038822,0.058337,0.455420,0.104235,-0.884099,-0.009798,4.144237,-4.696425,6.528733,169.136458,-53.439683,-161.071001,7.864297,1.201997,-6.880315,0,0.003462762,0
1786126043.309125,0.051081,-0.038458,-0.661914,-0.099365,0.028564,-0.990723,0.996955,0.038957,-0.039157,0.055044,0.464558,0.105031,-0.879235,-0.009987,4.221769,-4.724501,6.146196,168.543518,-54.568926,-160.452135,7.980512,1.229039,-6.719822,0,0.003461754,0
1786126043.329123,0.026979,-0.034330,-0.671235,-0.101562,0.025635,-0.981445,0.997104,0.039390,-0.039479,0.051701,0.473983,0.105712,-0.874103,-0.010402,4.285511,-4.749639,5.758528,167.861375,-55.732888,-159.773197,8.097935,1.259844,-6.552283,0,0.003462255,0
1786126043.349121,-0.006443,-0.028071,-0.679890,-0.101318,0.020996,-0.974365,0.997252,0.039648,-0.039780,0.048309,0.483830,0.106095,-0.868637,-0.011061,4.329708,-4.770901,5.366240,167.086311,-56.950265,-159.047572,8.217819,1.293173,-6.380985,0,0.003462615,0
1786126043.369153,-0.041464,-0.020748,-0.688013,-0.101318,0.020020,-0.972900,0.997399,0.039727,-0.040052,0.044871,0.493944,0.106669,-0.862843,-0.011933,4.353969,-4.787553,4.969641,166.171465,-58.195078,-158.183186,8.338839,1.332756,-6.204270,0,0.003464313,0
1786126043.389132,-0.078615,-0.011959,-0.696135,-0.101074,0.018311,-0.975830,0.997544,0.039617,-0.040289,0.041386,0.504278,0.107379,-0.856741,-0.012978,4.356964,-4.798920,4.568805,165.113923,-59.461019,-157.178477,8.459056,1.377299,-6.023443,0,0.003463370,0
1786126043.409142,-0.116698,-0.001706,-0.701728,-0.100830,0.017578,-0.982422,0.997688,0.039313,-0.040481,0.037868,0.514626,0.108398,-0.850417,-0.014176,4.338265,-4.804310,4.165218,163.894995,-60.717712,-155.997824,8.575519,1.427791,-5.837920,0,0.003463985,0
1786126043.429263,-0.148257,0.008947,-0.706122,-0.101318,0.019775,-0.986328,0.997829,0.038853,-0.040624,0.034322,0.524896,0.110101,-0.843874,-0.015460,4.301944,-4.803502,3.759539,162.468864,-61.943841,-154.558256,8.685467,1.486630,-5.642853,0,0.003469179,0
1786126043.449328,-0.171693,0.022396,-0.710516,-0.100830,0.020752,-0.983398,0.997964,0.038275,-0.040702,0.030752,0.535275,0.112358,-0.837005,-0.016725,4.252351,-4.795113,3.351896,160.824718,-63.163321,-152.851857,8.790209,1.550953,-5.435180,0,0.003470706,0
1786126043.469256,-0.191267,0.037043,-0.713446,-0.099854,0.023193,-0.979248,0.998094,0.037598,-0.040708,0.027166,0.545731,0.115295,-0.829797,-0.017924,4.191773,-4.778522,2.943146,158.923747,-64.363766,-150.825572,8.890173,1.621629,-5.218211,0,0.003466015,0
1786126043.489258,-0.205248,0.049693,-0.717840,-0.099854,0.024902,-0.973389,0.998216,0.036851,-0.040652,0.023556,0.556274,0.118877,-0.822231,-0.019085,4.123291,-4.754939,2.532357,156.722987,-65.537612,-148.441986,8.984310,1.699392,-4.992135,0,0.003465611,0
1786126043.509209,-0.205648,0.060213,-0.720636,-0.098389,0.028076,-0.976074,0.998326,0.036103,-0.040540,0.019933,0.566815,0.123160,-0.814340,-0.020093,4.054674,-4.725638,2.120334,154.207886,-66.665781,-145.672454,9.072831,1.783103,-4.764207,0,0.003463155,0
1786126043.529145,-0.199656,0.068735,-0.721835,-0.098633,0.029541,-0.982422,0.998424,0.035384,-0.040385,0.016307,0.577086,0.127914,-0.806332,-0.020942,3.989383,-4.691858,1.707912,151.424632,-67.711840,-142.581521,9.151312,1.870452,-4.533723,0,0.003460646,0
1786126043.549169,-0.181147,0.075259,-0.723300,-0.097168,0.032227,-0.989258,0.998507,0.034757,-0.040195,0.012678,0.587215,0.133231,-0.798099,-0.021602,3.934539,-4.654699,1.294859,148.320454,-68.678474,-139.106620,9.222418,1.961782,-4.301771,0,0.003462547,0
1786126043.569356,-0.156513,0.082716,-0.725963,-0.096924,0.033936,-0.995117,0.998573,0.034252,-0.039965,0.009041,0.597203,0.139015,-0.789643,-0.022087,3.893556,-4.613550,0.880547,144.884809,-69.555807,-135.246171,9.285108,2.056953,-4.065995,0,0.003470894,0
1786126043.589163,-0.124155,0.089907,-0.728626,-0.096191,0.036133,-0.995850,0.998622,0.033907,-0.039697,0.005398,0.607104,0.145139,-0.780937,-0.022272,3.870798,-4.568461,0.464985,141.136645,-70.348536,-131.019599,9.340914,2.152113,-3.822650,0,0.003461010,0
1786126043.609136,-0.089401,0.094035,-0.731422,-0.094727,0.036377,-0.995117,0.998652,0.033733,-0.039408,0.001749,0.616976,0.151498,-0.771940,-0.022317,3.867354,-4.521160,0.048024,137.032400,-71.045121,-126.404975,9.389354,2.249976,-3.575475,0,0.003460612,0
1786126043.629148,-0.052916,0.096831,-0.733553,-0.094238,0.036377,-0.991211,0.998664,0.033738,-0.039105,-0.001902,0.626716,0.158039,-0.762730,-0.022211,3.884216,-4.472270,-0.369980,132.621053,-71.624410,-121.454414,9.429148,2.349273,-3.321995,0,0.003461992,0
1786126043.649235,-0.018294,0.096565,-0.735550,-0.093018,0.035156,-0.987305,0.998656,0.033912,-0.038804,-0.005556,0.636316,0.164635,-0.753335,-0.022005,3.920185,-4.423450,-0.789032,127.946784,-72.077238,-116.226508,9.461356,2.449774,-3.069254,0,0.003466180,0
1786126043.669134,0.011533,0.095366,-0.738613,-0.091309,0.034912,-0.987793,0.998629,0.034232,-0.038510,-0.009220,0.645739,0.171316,-0.743775,-0.021715,3.972711,-4.374994,-1.209763,123.070116,-72.388139,-110.780044,9.487469,2.551521,-2.822809,0,0.003461372,0
1786126043.689285,0.031906,0.091505,-0.741276,-0.092285,0.035400,-0.995361,0.998584,0.034654,-0.038236,-0.012893,0.654594,0.178339,-0.734330,-0.021498,4.036745,-4.328188,-1.632060,118.194977,-72.498192,-105.309511,9.501616,2.659660,-2.587605,0,0.003468497,0
1786126043.709184,0.044556,0.086178,-0.744472,-0.092773,0.034424,-1.005127,0.998523,0.035139,-0.037987,-0.016580,0.662847,0.185410,-0.725123,-0.021306,4.107793,-4.283819,-2.056271,113.508485,-72.437813,-100.022555,9.506773,2.769758,-2.368796,0,0.003463097,0
1786126043.729182,0.048551,0.078855,-0.746735,-0.093018,0.032715,-1.012695,0.998445,0.035642,-0.037775,-0.020278,0.670449,0.192586,-0.716210,-0.021245,4.180895,-4.243024,-2.481947,109.123471,-72.209879,-95.035545,9.501939,2.883428,-2.163283,0,0.003463284,0
1786126043.749167,0.042692,0.069933,-0.746336,-0.088867,0.027832,-1.013916,0.998352,0.036111,-0.037608,-0.023976,0.677622,0.199473,-0.707520,-0.021312,4.249893,-4.206999,-2.907610,105.041397,-71.871309,-90.382746,9.491089,2.996374,-1.969351,0,0.003462848,0
1786126043.769280,0.029909,0.060612,-0.746869,-0.089111,0.025146,-1.006592,0.998246,0.036514,-0.037485,-0.027680,0.684182,0.206420,-0.699157,-0.021553,4.311288,-4.175822,-3.333861,101.369954,-71.406370,-86.146372,9.470297,3.111304,-1.778050,0,0.003467959,0
1786126043.789183,0.009802,0.051291,-0.746469,-0.089844,0.021240,-1.000000,0.998128,0.036814,-0.037406,-0.031386,0.690044,0.213192,-0.691309,-0.021913,4.360795,-4.149640,-3.760186,98.192050,-70.860710,-82.424601,9.442078,3.225238,-1.604141,0,0.003462876,0
1786126043.809342,-0.012169,0.042636,-0.748733,-0.091064,0.020264,-0.996582,0.997999,0.037003,-0.037366,-0.035109,0.695244,0.220213,-0.683840,-0.022475,4.397745,-4.127951,-4.188124,95.469214,-70.215533,-79.149908,9.409174,3.343698,-1.450700,0,0.003469978,0
1786126043.829198,-0.038268,0.034114,-0.750198,-0.091553,0.018066,-0.995605,0.997859,0.037059,-0.037363,-0.038844,0.699772,0.227159,-0.676893,-0.023106,4.419600,-4.110878,-4.617222,93.207782,-69.528177,-76.345500,9.371321,3.461484,-1.317642,0,0.003462369,0
1786126043.849271,-0.067297,0.026657,-0.751662,-0.090820,0.017334,-0.999268,0.997708,0.036969,-0.037391,-0.042593,0.703647,0.234269,-0.670393,-0.023910,4.424812,-4.097892,-5.047461,91.364803,-68.786345,-73.956583,9.329845,3.582391,-1.206925,0,0.003465901,0
1786126043.869181,-0.098189,0.019200,-0.751795,-0.090332,0.015625,-1.005371,0.997547,0.036722,-0.037449,-0.046350,0.706793,0.241317,-0.664527,-0.024774,4.412186,-4.089222,-5.478090,89.948041,-68.034538,-72.001249,9.283592,3.701914,-1.116271,0,0.003461609,0
1786126043.889192,-0.125886,0.012941,-0.750331,-0.089355,0.013672,-1.009277,0.997377,0.036333,-0.037532,-0.050104,0.709240,0.248318,-0.659285,-0.025710,4.383431,-4.084409,-5.908148,88.907523,-67.281419,-70.429557,9.233992,3.820055,-1.041414,0,0.003462713,0
1786126043.909128,-0.151053,0.008148,-0.747002,-0.088623,0.013428,-1.007812,0.997197,0.035816,-0.037633,-0.053847,0.710963,0.255372,-0.654681,-0.026629,4.340125,-4.082745,-6.336528,88.221779,-66.535644,-69.204465,9.181864,3.936119,-0.978921,0,0.003460318,0
1786126043.929223,-0.176087,0.005085,-0.740078,-0.087158,0.014404,-0.998779,0.997008,0.035174,-0.037742,-0.057560,0.711944,0.262590,-0.650710,-0.027557,4.282361,-4.083448,-6.761113,87.869009,-65.792301,-68.296634,9.126438,4.052037,-0.927761,0,0.003465306,0
1786126043.949332,-0.183277,0.004153,-0.735816,-0.087402,0.014893,-0.994385,0.996808,0.034494,-0.037854,-0.061253,0.712199,0.269959,-0.647372,-0.028360,4.220376,-4.085286,-7.183337,87.816197,-65.067257,-67.663368,9.070212,4.166404,-0.896437,0,0.003469678,0
1786126043.969327,-0.185940,0.003887,-0.728626,-0.087158,0.014893,-0.990234,0.996596,0.033800,-0.037968,-0.064911,0.711673,0.277352,-0.644793,-0.028979,4.156651,-4.088017,-7.601495,88.060209,-64.380896,-67.308048,9.012884,4.276234,-0.884101,0,0.003468079,0
1786126043.989222,-0.178350,0.006150,-0.720636,-0.086914,0.016602,-0.988525,0.996371,0.033145,-0.038072,-0.068526,0.710329,0.284913,-0.642958,-0.029377,4.097275,-4.090114,-8.015042,88.594217,-63.725410,-67.208196,8.956628,4.382267,-0.892866,0,0.003462613,0
1786126044.009310,-0.164768,0.008015,-0.710117,-0.086182,0.019287,-0.994141,0.996136,0.032561,-0.038172,-0.072085,0.708031,0.292719,-0.641974,-0.029609,4.045804,-4.091762,-8.422562,89.446644,-63.092843,-67.389823,8.899605,4.485923,-0.930118,0,0.003466748,0
1786126044.029208,-0.147058,0.009346,-0.696668,-0.084961,0.019531,-1.000488,0.995889,0.032066,-0.038272,-0.075574,0.704776,0.300336,-0.642040,-0.029568,4.004270,-4.093388,-8.822376,90.600347,-62.526966,-67.865552,8.843351,4.580176,-0.994051,0,0.003461741,0
1786126044.049226,-0.123756,0.010278,-0.681089,-0.087158,0.013672,-1.000000,0.995633,0.031681,-0.038379,-0.078979,0.700528,0.307191,-0.643454,-0.029330,3.975209,-4.095454,-9.213234,92.055318,-62.067024,-68.693254,8.786047,4.658055,-1.076422,0,0.003463057,0
1786126044.069181,-0.105247,0.014007,-0.661647,-0.086914,0.003662,-0.990967,0.995371,0.031378,-0.038480,-0.082283,0.695579,0.312646,-0.646211,-0.028877,3.955051,-4.096680,-9.592757,93.716058,-61.754096,-69.833491,8.737822,4.711190,-1.178416,0,0.003461436,0
1786126044.089248,-0.095127,0.021330,-0.634483,-0.086182,-0.011719,-0.977539,0.995110,0.031107,-0.038556,-0.085446,0.690006,0.316083,-0.650526,-0.028277,3.937833,-4.095513,-9.956314,95.576906,-61.625165,-71.342524,8.697638,4.732397,-1.295981,0,0.003464957,0
1786126044.109237,-0.088202,0.032649,-0.600927,-0.083740,-0.022705,-0.976562,0.994855,0.030859,-0.038586,-0.088439,0.683742,0.317818,-0.656303,-0.027485,3.922087,-4.089625,-10.300130,97.681360,-61.643926,-73.231880,8.672683,4.722876,-1.442247,0,0.003464245,0
1786126044.129241,-0.081811,0.044100,-0.561646,-0.085205,-0.028809,-0.983887,0.994611,0.030642,-0.038567,-0.091232,0.676401,0.318364,-0.663643,-0.026523,3.908537,-4.078763,-10.621009,100.167713,-61.749905,-75.595125,8.654533,4.688151,-1.614405,0,0.003464386,0
1786126044.149167,-0.074088,0.050758,-0.518502,-0.085449,-0.031250,-0.990723,0.994378,0.030469,-0.038523,-0.093809,0.668037,0.317853,-0.672348,-0.025379,3.898740,-4.065492,-10.916991,103.028772,-61.905670,-78.410621,8.644927,4.631227,-1.814079,0,0.003461164,0
1786126044.169167,-0.072756,0.054354,-0.470299,-0.084717,-0.033203,-0.992188,0.994162,0.030310,-0.038465,-0.096145,0.658761,0.316128,-0.682287,-0.024116,3.889419,-4.051480,-11.185336,106.239686,-62.089588,-81.670922,8.639873,4.552324,-2.034784,0,0.003461867,0
1786126044.189149,-0.081811,0.057150,-0.417835,-0.084473,-0.040771,-0.988770,0.993968,0.030101,-0.038395,-0.098221,0.648811,0.312456,-0.693467,-0.022783,3.873219,-4.037755,-11.423545,109.765667,-62.327971,-85.409505,8.637695,4.444633,-2.272885,0,0.003461690,0
1786126044.209165,-0.092064,0.060745,-0.361376,-0.086426,-0.042480,-0.991455,0.993799,0.029871,-0.038296,-0.100020,0.638084,0.307385,-0.705624,-0.021385,3.853097,-4.022130,-11.629572,113.624683,-62.541927,-89.593159,8.639266,4.313316,-2.530258,0,0.003462933,0
1786126044.229625,-0.099920,0.062077,-0.305316,-0.087402,-0.038574,-0.998047,0.993656,0.029673,-0.038145,-0.101545,0.626737,0.301354,-0.718323,-0.019959,3.834720,-4.001331,-11.804032,117.725726,-62.669158,-94.093296,8.642242,4.166799,-2.806446,0,0.003482884,0
1786126044.249269,-0.104315,0.059414,-0.247792,-0.086426,-0.033203,-1.004395,0.993541,0.029514,-0.037924,-0.102792,0.615040,0.294276,-0.731293,-0.018390,3.818894,-3.973290,-11.946149,121.976308,-62.713514,-98.815220,8.643866,4.003461,-3.094399,0,0.003463042,0
1786126044.269452,-0.102850,0.053688,-0.192265,-0.086914,-0.027832,-1.006592,0.993455,0.029387,-0.037638,-0.103768,0.603084,0.286208,-0.744374,-0.016810,3.804793,-3.938385,-12.056872,126.304685,-62.650088,-103.692479,8.639099,3.828571,-3.380706,0,0.003471110,0
1786126044.289275,-0.093795,0.045033,-0.138603,-0.085449,-0.025635,-1.006348,0.993394,0.029296,-0.037341,-0.104479,0.591209,0.276773,-0.757390,-0.015139,3.793582,-3.903019,-12.137144,130.631493,-62.519925,-108.673000,8.630939,3.637411,-3.666760,0,0.003461853,0
1786126044.309144,-0.079281,0.038108,-0.085206,-0.085938,-0.031738,-1.003174,0.993360,0.029253,-0.037024,-0.104924,0.579621,0.265282,-0.770380,-0.013399,3.786432,-3.865624,-12.186913,134.960785,-62.368405,-113.823361,8.617965,3.424531,-3.942303,0,0.003456794,0
1786126044.329230,-0.059573,0.031317,-0.029147,-0.085693,-0.038574,-0.997314,0.993354,0.029269,-0.036696,-0.105090,0.568539,0.251741,-0.783106,-0.011565,3.784762,-3.827520,-12.204547,139.252280,-62.206150,-119.100648,8.606503,3.190633,-4.203798,0,0.003462267,0
1786126044.349266,-0.039999,0.026257,0.028378,-0.083252,-0.037598,-0.991943,0.993374,0.029373,-0.036422,-0.104966,0.558226,0.237065,-0.795042,-0.009642,3.792732,-3.795464,-12.189427,143.367855,-62.012975,-124.288436,8.599244,2.946562,-4.449882,0,0.003464248,0
1786126044.369305,-0.024420,0.026257,0.084304,-0.082031,-0.031006,-0.992920,0.993419,0.029565,-0.036217,-0.104561,0.548799,0.222059,-0.805885,-0.007681,3.810580,-3.771333,-12.142444,147.207501,-61.778491,-129.222559,8.591198,2.703308,-4.680263,0,0.003465879,0
1786126044.389271,-0.006310,0.027322,0.137567,-0.083740,-0.026855,-0.992920,0.993487,0.029846,-0.036064,-0.103887,0.540243,0.206715,-0.815705,-0.005701,3.838268,-3.753080,-12.064980,150.795636,-61.521936,-133.930701,8.578936,2.462425,-4.887144,0,0.003463970,0
1786126044.409190,0.016060,0.032915,0.184572,-0.086914,-0.014404,-0.994873,0.993575,0.030237,-0.035946,-0.102972,0.532479,0.192148,-0.824337,-0.003710,3.878052,-3.738458,-11.960425,154.042351,-61.218028,-138.228766,8.564654,2.234639,-5.074452,0,0.003460564,0
1786126044.429257,0.036966,0.044633,0.220258,-0.087646,-0.005127,-0.983154,0.993677,0.030730,-0.035821,-0.101874,0.525657,0.178150,-0.831832,-0.001759,3.928684,-3.722766,-11.834967,156.964941,-60.913850,-142.157908,8.548509,2.020289,-5.227839,0,0.003464285,0
1786126044.449251,0.051214,0.063675,0.250885,-0.086426,0.005859,-0.958496,0.993794,0.031292,-0.035648,-0.100616,0.519938,0.165054,-0.838106,0.000081,3.986066,-3.701434,-11.691175,159.525893,-60.639651,-145.659886,8.534755,1.822733,-5.344517,0,0.003464008,0
1786126044.469251,0.072519,0.099894,0.274853,-0.085938,0.015381,-0.939209,0.993923,0.031965,-0.035338,-0.099228,0.515516,0.152780,-0.843148,0.001869,4.054154,-3.663905,-11.532124,161.762374,-60.445030,-148.774977,8.524851,1.640594,-5.440490,0,0.003464018,0
1786126044.489321,0.104610,0.145567,0.291897,-0.083740,0.026611,-0.935059,0.994060,0.032804,-0.034853,-0.097740,0.512740,0.141426,-0.846808,0.003668,4.138898,-3.605101,-11.361295,163.682003,-60.391466,-151.498642,8.525100,1.473677,-5.524272,0,0.003467045,0
1786126044.509307,0.133772,0.190308,0.301218,-0.080811,0.034668,-0.934326,0.994201,0.033793,-0.034191,-0.096191,0.511656,0.130649,-0.849182,0.005398,4.238644,-3.524980,-11.183030,165.349961,-60.503819,-153.931835,8.537331,1.319926,-5.577136,0,0.003465719,0
1786126044.529278,0.167994,0.241707,0.304681,-0.073242,0.026367,-0.942383,0.994343,0.034928,-0.033351,-0.094605,0.512935,0.118458,-0.850185,0.007092,4.353351,-3.423493,-11.000085,166.988167,-60.910275,-156.463448,8.570590,1.160008,-5.603745,0,0.003464077,0
1786126044.549254,0.186236,0.283519,0.309341,-0.066162,0.014404,-0.941650,0.994486,0.036112,-0.032362,-0.092981,0.516474,0.104833,-0.849817,0.008634,4.472129,-3.305064,-10.811962,168.649910,-61.597564,-159.155128,8.627046,0.991570,-5.572628,0,0.003463055,0
1786126044.569289,0.181043,0.322134,0.317064,-0.057129,0.005859,-0.950928,0.994637,0.037235,-0.031207,-0.091309,0.522463,0.090647,-0.847772,0.009900,4.582386,-3.168898,-10.617031,170.256813,-62.579854,-161.863227,8.709139,0.823606,-5.502009,0,0.003464795,0
1786126044.589382,0.166662,0.357155,0.323988,-0.049561,0.022949,-0.968262,0.994793,0.038319,-0.029865,-0.089597,0.530466,0.079072,-0.843941,0.010863,4.686441,-3.012368,-10.416285,171.468154,-63.776985,-163.980423,8.811064,0.686100,-5.387540,0,0.003468583,0
1786126044.609240,0.152947,0.387781,0.320526,-0.041504,0.031494,-0.979004,0.994948,0.039350,-0.028361,-0.087897,0.540092,0.069287,-0.838670,0.011511,4.783487,-2.838379,-10.215725,172.402145,-65.163893,-165.694589,8.922047,0.575879,-5.224190,0,0.003461461,0
1786126044.629210,0.127780,0.410685,0.316532,-0.032959,0.033691,-0.982178,0.995104,0.040265,-0.026733,-0.086214,0.551175,0.060821,-0.832085,0.011869,4.866641,-2.651522,-10.015981,173.122878,-66.735787,-167.106699,9.040604,0.485536,-5.014806,0,0.003460800,0
1786126044.649287,0.093691,0.427462,0.308542,-0.022949,0.029541,-0.982422,0.995259,0.041014,-0.025007,-0.084571,0.563505,0.053255,-0.824308,0.011915,4.930548,-2.455272,-9.819635,173.681329,-68.477386,-168.304205,9.163756,0.410371,-4.766988,0,0.003464885,0
1786126044.669268,0.053478,0.437316,0.301884,-0.013672,0.027832,-0.981689,0.995415,0.041571,-0.023212,-0.082962,0.576695,0.047054,-0.815520,0.011656,4.972591,-2.253033,-9.626368,173.983834,-70.340677,-169.154414,9.286617,0.353306,-4.487378,0,0.003463922,0
1786126044.689270,0.010201,0.442643,0.292297,-0.006836,0.036133,-0.990479,0.995569,0.041936,-0.021359,-0.081405,0.590170,0.043336,-0.806038,0.011138,4.992909,-2.045965,-9.438222,173.750650,-72.244067,-169.282033,9.402579,0.325020,-4.192277,0,0.003464042,0
1786126044.709267,-0.024420,0.437183,0.277649,0.000488,0.042480,-1.010010,0.995719,0.042145,-0.019505,-0.079925,0.603271,0.041583,-0.796383,0.010452,4.996325,-1.839861,-9.258676,172.971414,-74.099473,-168.713183,9.504600,0.322964,-3.898584,0,0.003463943,0
1786126044.729253,-0.057576,0.423068,0.262203,0.007568,0.043457,-1.029053,0.995861,0.042199,-0.017695,-0.078527,0.615656,0.041023,-0.786887,0.009640,4.983138,-1.639799,-9.088654,171.682859,-75.858430,-167.545411,9.589911,0.338026,-3.608708,0,0.003463379,0
1786126044.749233,-0.091798,0.399766,0.251018,0.016113,0.039551,-1.037842,0.996000,0.042082,-0.015979,-0.077193,0.627319,0.041009,-0.777633,0.008735,4.951995,-1.451629,-8.926213,169.909804,-77.518044,-165.854187,9.660498,0.361118,-3.321223,0,0.003462671,0
1786126044.769473,-0.114301,0.374732,0.236504,0.023438,0.040771,-1.040039,0.996130,0.041855,-0.014366,-0.075937,0.638217,0.041806,-0.768681,0.007819,4.909865,-1.275797,-8.773387,167.418831,-79.059264,-163.378593,9.716983,0.392505,-3.040459,0,0.003473297,0
1786126044.789216,-0.134541,0.350098,0.226916,0.032471,0.032715,-1.024902,0.996256,0.041516,-0.012869,-0.074735,0.648633,0.042437,-0.759886,0.006910,4.856515,-1.113657,-8.627324,164.296589,-80.526035,-160.283540,9.765251,0.423381,-2.759159,0,0.003460037,0
1786126044.809159,-0.155447,0.316941,0.220924,0.035889,0.051758,-1.037109,0.996377,0.041087,-0.011503,-0.073571,0.657961,0.045397,-0.751658,0.006036,4.794378,-0.966977,-8.486456,159.302753,-81.758051,-155.123492,9.798185,0.475492,-2.511897,0,0.003458614,0
1786126044.829233,-0.157578,0.274730,0.205744,0.044434,0.061523,-1.041016,0.996487,0.040644,-0.010329,-0.072492,0.666304,0.049392,-0.744024,0.005248,4.732776,-0.841871,-8.356401,152.622381,-82.752752,-148.185000,9.821097,0.544153,-2.285257,0,0.003463152,0
1786126044.849299,-0.144395,0.224796,0.188434,0.047607,0.069336,-1.069580,0.996583,0.040263,-0.009388,-0.071509,0.673121,0.053849,-0.737555,0.004604,4.680601,-0.742154,-8.238687,144.983132,-83.425230,-140.237628,9.829198,0.620963,-2.109397,0,0.003466194,0
1786126044.869251,-0.129215,0.156219,0.171656,0.049561,0.072998,-1.087402,0.996664,0.039947,-0.008772,-0.070623,0.678330,0.058346,-0.732426,0.004072,4.638661,-0.678606,-8.133809,137.439388,-83.787811,-132.372701,9.826950,0.696572,-1.964223,0,0.003463637,0
1786126044.889247,-0.103382,0.071531,0.156343,0.049805,0.065674,-1.110840,0.996730,0.039735,-0.008576,-0.069829,0.682019,0.061736,-0.728715,0.003684,4.612287,-0.661599,-8.041611,131.467709,-83.960478,-126.157565,9.820287,0.758478,-1.869249,0,0.003463564,0
1786126044.909255,-0.078349,-0.023544,0.148619,0.050537,0.060547,-1.124756,0.996784,0.039613,-0.008863,-0.069091,0.684730,0.064392,-0.725938,0.003433,4.600211,-0.698781,-7.958200,126.811059,-84.035222,-121.305721,9.819344,0.805110,-1.805829,0,0.003464013,0
1786126044.929473,-0.045326,-0.130470,0.145690,0.049561,0.064453,-1.125244,0.996825,0.039614,-0.009704,-0.068388,0.686934,0.067451,-0.723575,0.003358,4.606439,-0.798045,-7.881395,122.630103,-84.015216,-116.882294,9.826291,0.849495,-1.757764,0,0.003473352,0
1786126044.949409,-0.014699,-0.241657,0.141961,0.046143,0.061523,-1.120850,0.996851,0.039711,-0.011134,-0.067722,0.689185,0.070515,-0.721138,0.003388,4.628273,-0.963744,-7.811900,118.454825,-83.973236,-112.455583,9.841579,0.893703,-1.718085,0,0.003468330,0
1786126044.969491,0.023118,-0.351246,0.138366,0.041504,0.059082,-1.112305,0.996860,0.039934,-0.013152,-0.067093,0.692059,0.074049,-0.718024,0.003551,4.669003,-1.195386,-7.749674,113.368594,-83.909689,-107.068732,9.867316,0.941345,-1.673878,0,0.003470779,0
1786126044.989340,0.059337,-0.450715,0.132907,0.033447,0.056152,-1.105957,0.996849,0.040281,-0.015697,-0.066509,0.695862,0.078322,-0.713882,0.003789,4.727856,-1.486290,-7.695478,106.924743,-83.783614,-100.257848,9.896880,0.998680,-1.611102,0,0.003462725,0
1786126045.009223,0.086634,-0.545923,0.131309,0.024170,0.046631,-1.110840,0.996816,0.040703,-0.018747,-0.065948,0.700876,0.082606,-0.708472,0.004059,4.799137,-1.834180,-7.647075,99.042532,-83.602402,-92.004844,9.932803,1.060447,-1.533349,0,0.003458089,0
1786126045.029220,0.112200,-0.633541,0.130377,0.013672,0.041260,-1.119141,0.996759,0.041204,-0.022255,-0.065407,0.707186,0.087439,-0.701587,0.004349,4.882706,-2.233694,-7.603937,89.872977,-83.248158,-82.417322,9.971574,1.130375,-1.424153,0,0.003459431,0
1786126045.049342,0.134305,-0.714102,0.131975,0.002441,0.039551,-1.115234,0.996675,0.041773,-0.026179,-0.064871,0.714971,0.093259,-0.692891,0.004645,4.977174,-2.680331,-7.564503,79.986431,-82.594990,-72.030421,10.010122,1.214797,-1.264616,0,0.003465760,0
1786126045.069217,0.147754,-0.784143,0.134105,-0.012207,0.033936,-1.101318,0.996563,0.042371,-0.030462,-0.064337,0.724151,0.099556,-0.682400,0.004874,5.077609,-3.167981,-7.528142,70.450328,-81.607806,-61.957989,10.037909,1.311422,-1.046657,0,0.003460034,0
1786126045.089276,0.153879,-0.839403,0.136635,-0.027588,0.021240,-1.076660,0.996422,0.042964,-0.035030,-0.063799,0.734409,0.105507,-0.670437,0.005034,5.179551,-3.688244,-7.494008,62.013773,-80.337223,-53.015679,10.049321,1.409645,-0.775696,0,0.003463558,0
1786126045.109381,0.151748,-0.876821,0.145823,-0.044189,0.008545,-1.042480,0.996256,0.043518,-0.039790,-0.063223,0.745363,0.110776,-0.657370,0.005137,5.278172,-4.231083,-7.457448,54.930987,-78.842100,-45.483381,10.037976,1.502833,-0.455885,0,0.003468173,0
1786126045.129260,0.138699,-0.898259,0.160470,-0.065918,0.003662,-1.010986,0.996070,0.043987,-0.044657,-0.062580,0.756208,0.115578,-0.644022,0.005179,5.367522,-4.787344,-7.414523,49.469140,-77.219969,-39.611090,9.997774,1.591721,-0.107692,0,0.003462003,0
1786126045.149376,0.114198,-0.899724,0.174186,-0.083740,0.003418,-0.993652,0.995869,0.044324,-0.049528,-0.061873,0.766025,0.119713,-0.631544,0.005155,5.441119,-5.345475,-7.364601,45.531619,-75.647964,-35.320415,9.932800,1.673618,0.229455,0,0.003467470,0
1786126045.169348,0.083838,-0.885742,0.187901,-0.103027,0.004395,-0.979248,0.995658,0.044505,-0.054322,-0.061101,0.774259,0.123015,-0.620778,0.005060,5.495566,-5.896596,-7.306665,42.789062,-74.265804,-32.298084,9.845804,1.743848,0.545006,0,0.003465426,0
1786126045.189462,0.059070,-0.854450,0.198154,-0.122559,0.005615,-0.961670,0.995442,0.044570,-0.058954,-0.060277,0.780238,0.125870,-0.612667,0.004958,5.534601,-6.430446,-7.241603,41.178312,-73.196154,-30.446847,9.743805,1.802455,0.819965,0,0.003469967,0
1786126045.209177,0.034702,-0.805581,0.209739,-0.141602,0.002686,-0.931641,0.995228,0.044524,-0.063336,-0.059392,0.783797,0.127891,-0.607686,0.004872,5.558146,-6.937073,-7.167496,40.385489,-72.525553,-29.485186,9.636338,1.846412,1.048559,0,0.003456406,0
1786126045.229471,0.000614,-0.740201,0.226783,-0.158691,-0.000000,-0.897217,0.995029,0.044324,-0.067386,-0.058418,0.784594,0.128483,-0.606532,0.004845,5.560010,-7.407357,-7.080085,40.248939,-72.365353,-29.299698,9.539580,1.865727,1.205610,0,0.003470798,0
1786126045.249578,-0.026417,-0.661904,0.234906,-0.173340,0.006104,-0.863281,0.994847,0.044032,-0.071031,-0.057396,0.782452,0.129283,-0.609124,0.004843,5.547235,-7.832403,-6.983942,41.181695,-72.644446,-30.170899,9.460641,1.872116,1.284438,0,0.003473714,0
1786126045.269380,-0.050519,-0.566962,0.244759,-0.187012,0.012939,-0.836182,0.994694,0.043698,-0.074174,-0.056319,0.777197,0.130806,-0.615492,0.004898,5.524485,-8.200553,-6.877544,43.470674,-73.335130,-32.340002,9.400406,1.877840,1.269020,0,0.003462927,0
1786126045.289412,-0.062902,-0.460569,0.248488,-0.197754,0.028076,-0.807617,0.994577,0.043435,-0.076684,-0.055218,0.768792,0.134919,-0.625085,0.005039,5.504243,-8.496010,-6.764626,47.840491,-74.255129,-36.372842,9.365105,1.899686,1.157416,0,0.003464585,0
1786126045.309224,-0.062370,-0.340061,0.248222,-0.207764,0.042236,-0.791504,0.994510,0.043261,-0.078423,-0.054105,0.757595,0.142160,-0.637034,0.005278,5.487791,-8.702527,-6.645913,54.662399,-75.178756,-42.592787,9.344203,1.956251,0.941678,0,0.003456432,0
1786126045.329621,-0.053581,-0.206769,0.241164,-0.214844,0.058105,-0.776611,0.994498,0.043155,-0.079394,-0.052999,0.744076,0.152763,-0.650371,0.005640,5.473062,-8.820523,-6.523548,63.986818,-75.830127,-51.025248,9.335214,2.051406,0.643472,0,0.003475258,0
1786126045.349418,-0.029879,-0.065089,0.227715,-0.218750,0.071289,-0.768555,0.994534,0.043197,-0.079629,-0.051922,0.729209,0.166000,-0.663823,0.006101,5.470071,-8.853127,-6.400882,74.802432,-75.967176,-60.716649,9.331800,2.184973,0.277077,0,0.003463860,0
1786126045.369512,-0.001383,0.084314,0.211204,-0.215820,0.084229,-0.761719,0.994617,0.043431,-0.079136,-0.050883,0.714176,0.180659,-0.676217,0.006726,5.484327,-8.800859,-6.279612,85.364224,-75.536360,-70.013051,9.335863,2.339379,-0.121805,0,0.003467900,0
1786126045.389426,0.027911,0.233717,0.195092,-0.207764,0.079834,-0.759277,0.994742,0.043870,-0.077948,-0.049879,0.700745,0.192936,-0.686786,0.007488,5.517670,-8.667507,-6.159619,93.914641,-74.887134,-77.475998,9.346059,2.481959,-0.521089,0,0.003463281,0
1786126045.409274,0.054809,0.383254,0.182175,-0.196289,0.073730,-0.761475,0.994904,0.044492,-0.076136,-0.048890,0.691171,0.201238,-0.694057,0.008390,5.568289,-8.461503,-6.038840,99.462790,-74.323217,-82.252125,9.374688,2.580520,-0.871755,0,0.003457025,0
1786126045.429272,0.077579,0.528263,0.173254,-0.181641,0.062012,-0.773682,0.995099,0.045194,-0.073776,-0.047890,0.688129,0.203955,-0.696270,0.009423,5.624646,-8.192492,-5.913689,101.158606,-74.173335,-83.634475,9.431079,2.622865,-1.120387,0,0.003458688,0
1786126045.449296,0.095023,0.665150,0.166729,-0.165771,0.057373,-0.800781,0.995329,0.045911,-0.070820,-0.046871,0.693367,0.202297,-0.691525,0.010510,5.679364,-7.855406,-5.782502,98.185692,-74.411025,-80.713803,9.522255,2.618249,-1.205634,0,0.003461030,0
1786126045.469199,0.112999,0.791250,0.159938,-0.147705,0.055664,-0.836670,0.995588,0.046687,-0.067261,-0.045843,0.707234,0.197542,-0.678721,0.011599,5.737543,-7.449274,-5.646629,89.863156,-74.711905,-72.700789,9.640298,2.589601,-1.077985,0,0.003457677,0
1786126045.489289,0.133373,0.901771,0.149685,-0.126465,0.055664,-0.878906,0.995861,0.047556,-0.063161,-0.044830,0.728586,0.191048,-0.657648,0.012699,5.804354,-6.980723,-5.509287,76.671244,-74.399341,-59.948506,9.760313,2.553921,-0.718117,0,0.003463075,0
1786126045.509255,0.139897,0.989523,0.142627,-0.100342,0.045654,-0.916504,0.996140,0.048457,-0.058625,-0.043825,0.755249,0.183550,-0.629064,0.013673,5.873320,-6.462358,-5.370011,61.503079,-72.788495,-45.286414,9.841487,2.518638,-0.138795,0,0.003461893,0
1786126045.529253,0.129378,1.052773,0.141828,-0.069824,0.035645,-0.951416,0.996416,0.049310,-0.053771,-0.042809,0.784626,0.176809,-0.594046,0.014485,5.936114,-5.908197,-5.226785,48.321855,-69.607933,-32.522921,9.841138,2.495913,0.614815,0,0.003462332,0
1786126045.549211,0.104344,1.088992,0.142894,-0.047607,0.024414,-1.007568,0.996682,0.050044,-0.048730,-0.041784,0.813007,0.172202,-0.556002,0.015098,5.985677,-5.333615,-5.080303,39.227329,-65.404258,-23.646315,9.706505,2.499414,1.451978,0,0.003460970,0
1786126045.569393,0.084770,1.085396,0.150350,-0.021484,0.029541,-1.031250,0.996926,0.050685,-0.043703,-0.040727,0.838739,0.171129,-0.516707,0.015644,6.026055,-4.761538,-4.929472,33.617938,-60.705946,-17.926693,9.435201,2.544257,2.315591,0,0.003469536,0
1786126045.589265,0.063731,1.074344,0.146089,0.007324,0.024170,-1.061279,0.997146,0.051223,-0.038724,-0.039696,0.861228,0.172792,-0.477673,0.016021,6.056575,-4.195541,-4.781476,30.258398,-55.925374,-14.204413,9.071046,2.627894,3.109669,0,0.003462737,0
1786126045.609310,0.011666,1.035462,0.155277,0.026855,0.016602,-1.102539,0.997348,0.051504,-0.033928,-0.038638,0.879158,0.178374,-0.441585,0.016318,6.060107,-3.652032,-4.630569,28.707755,-51.468726,-11.936510,8.609023,2.756117,3.811078,0,0.003464969,0
1786126045.629314,-0.012169,0.965288,0.156209,0.046143,0.026367,-1.117920,0.997521,0.051670,-0.029474,-0.037598,0.892180,0.188478,-0.410140,0.016589,6.053642,-3.148107,-4.483542,28.573951,-47.569120,-10.677006,8.102492,2.942487,4.390895,0,0.003464931,0
1786126045.649448,-0.049986,0.869281,0.154345,0.061523,0.021240,-1.140381,0.997669,0.051648,-0.025486,-0.036596,0.900194,0.202483,-0.385188,0.016799,6.029270,-2.698123,-4.343622,29.507871,-44.450278,-10.145357,7.598871,3.180423,4.805203,0,0.003470439,0
1786126045.669397,-0.091132,0.748506,0.159272,0.072021,0.026123,-1.154541,0.997797,0.051428,-0.022084,-0.035606,0.903147,0.221276,-0.367527,0.016931,5.986101,-2.315848,-4.208546,31.500126,-42.171692,-10.264709,7.153777,3.476608,5.055518,0,0.003466700,0
1786126045.689359,-0.114568,0.609223,0.153679,0.080322,0.023682,-1.173828,0.997904,0.051096,-0.019357,-0.034683,0.901449,0.243546,-0.357474,0.016943,5.934119,-2.010857,-4.085366,34.305404,-40.748720,-10.924769,6.799369,3.823061,5.122480,0,0.003464439,0
1786126045.709395,-0.136406,0.450366,0.155410,0.085449,0.023193,-1.192383,0.997992,0.050663,-0.017399,-0.033795,0.895400,0.268781,-0.354590,0.016794,5.874487,-1.793823,-3.970957,37.851946,-40.092763,-12.113803,6.559625,4.205788,5.026251,0,0.003465891,0
1786126045.729373,-0.143064,0.280989,0.150883,0.088867,0.028809,-1.200439,0.998062,0.050204,-0.016255,-0.032974,0.885298,0.296373,-0.357971,0.016336,5.815678,-1.669660,-3.869324,42.088792,-40.053649,-13.852299,6.438058,4.617931,4.784562,0,0.003464532,0
1786126045.749231,-0.130014,0.057683,0.142894,0.087646,0.036133,-1.203613,0.998107,0.049799,-0.016201,-0.032249,0.871264,0.325041,-0.367440,0.015354,5.767756,-1.669244,-3.785336,46.943516,-40.560899,-16.212353,6.420141,5.040682,4.398336,0,0.003458349,0
1786126045.769854,-0.114168,-0.124611,0.131708,0.084717,0.040283,-1.199463,0.998131,0.049437,-0.017065,-0.031625,0.854362,0.352959,-0.381174,0.013837,5.728587,-1.772924,-3.718188,52.162963,-41.382944,-19.093607,6.507988,5.449453,3.892587,0,0.003486383,0
1786126045.789343,-0.081012,-0.304907,0.118925,0.079102,0.044678,-1.196533,0.998127,0.049185,-0.018856,-0.031104,0.835632,0.378767,-0.397638,0.011784,5.705711,-1.981727,-3.668539,57.530573,-42.336636,-22.386735,6.658125,5.823179,3.293861,0,0.003459075,0
1786126045.809143,-0.047856,-0.479610,0.105343,0.071777,0.044922,-1.193848,0.998093,0.049032,-0.021549,-0.030689,0.816498,0.400811,-0.415447,0.009227,5.697699,-2.292829,-3.636470,62.725199,-43.300147,-25.906411,6.848671,6.133932,2.644480,0,0.003451806,0
1786126045.829244,-0.005778,-0.645791,0.091628,0.063965,0.047852,-1.189209,0.998020,0.049033,-0.025092,-0.030379,0.798329,0.418870,-0.432643,0.006280,5.710792,-2.699928,-3.621680,67.502646,-44.110429,-29.395053,7.058163,6.378834,1.995818,0,0.003459115,0
1786126045.849181,0.038697,-0.796926,0.077113,0.052979,0.049561,-1.181885,0.997899,0.049214,-0.029400,-0.030172,0.782371,0.433137,-0.447524,0.003152,5.747867,-3.193397,-3.624012,71.622040,-44.667438,-32.559132,7.253599,6.564018,1.397865,0,0.003457656,0
1786126045.869197,0.077846,-0.931682,0.064996,0.039795,0.047607,-1.170410,0.997727,0.049556,-0.034388,-0.030052,0.769514,0.443906,-0.459125,-0.000024,5.806677,-3.763609,-3.641479,74.902985,-44.957686,-35.175545,7.420593,6.699211,0.887381,0,0.003459941,0
1786126045.889345,0.112200,-1.043934,0.054610,0.022705,0.045166,-1.151855,0.997497,0.050045,-0.039939,-0.030006,0.759799,0.452167,-0.467162,-0.003111,5.885341,-4.397484,-3.672179,77.370728,-44.998299,-37.166387,7.544391,6.802234,0.491716,0,0.003467256,0
1786126045.909386,0.132041,-1.131286,0.049417,0.004883,0.039307,-1.123535,0.997211,0.050611,-0.045929,-0.030003,0.753241,0.458197,-0.471855,-0.005975,5.975544,-5.081062,-3.712016,79.035982,-44.859111,-38.514543,7.621617,6.879973,0.214289,0,0.003468216,0
1786126045.929372,0.140430,-1.188677,0.045954,-0.018799,0.035400,-1.083008,0.996871,0.051203,-0.052205,-0.030029,0.748946,0.462810,-0.474145,-0.008560,6.071067,-5.797214,-3.758482,80.133327,-44.611421,-39.383859,7.643877,6.942771,0.052343,0,0.003466638,0
1786126045.949368,0.138566,-1.212246,0.042892,-0.044922,0.031738,-1.037354,0.996484,0.051778,-0.058596,-0.030076,0.745714,0.466485,-0.475589,-0.010832,6.166182,-6.526608,-3.809442,80.953395,-44.362963,-40.033498,7.612928,6.993170,-0.030092,0,0.003465807,0
1786126045.969279,0.122054,-1.201327,0.042359,-0.072998,0.026855,-0.988281,0.996065,0.052266,-0.064927,-0.030126,0.742431,0.469081,-0.478118,-0.012746,6.252153,-7.249756,-3.861283,81.752005,-44.265308,-40.752750,7.538708,7.023002,-0.069349,0,0.003461594,0
1786126045.989454,0.095822,-1.157651,0.042093,-0.102051,0.023682,-0.939209,0.995627,0.052627,-0.071036,-0.030175,0.737618,0.470703,-0.483892,-0.014348,6.323292,-7.947981,-3.911636,82.872010,-44.454939,-41.900740,7.443527,7.027528,-0.107099,0,0.003469684,0
1786126046.009310,0.061467,-1.079620,0.039297,-0.130859,0.024170,-0.882324,0.995191,0.052829,-0.076746,-0.030229,0.729882,0.471628,-0.494570,-0.015519,6.375144,-8.601483,-3.959538,84.647962,-45.017042,-43.787190,7.345492,7.001220,-0.170628,0,0.003462160,0
1786126046.029289,0.021387,-0.969898,0.035834,-0.157715,0.020020,-0.831543,0.994777,0.052851,-0.081902,-0.030286,0.717247,0.471601,-0.512719,-0.016357,6.404251,-9.192169,-4.003042,87.569826,-46.059898,-46.948036,7.268202,6.930086,-0.322659,0,0.003461741,0
1786126046.049253,-0.018694,-0.832612,0.033171,-0.181396,0.018066,-0.786621,0.994406,0.052710,-0.086361,-0.030339,0.697778,0.471281,-0.539182,-0.016821,6.411538,-9.704006,-4.039832,92.173193,-47.442934,-51.826514,7.237964,6.806613,-0.612621,0,0.003460784,0
1786126046.069149,-0.052916,-0.676684,0.033837,-0.200195,0.023682,-0.746338,0.994093,0.052483,-0.090016,-0.030368,0.670407,0.471778,-0.572447,-0.016869,6.404643,-10.124161,-4.067440,98.767675,-48.731664,-58.560435,7.255881,6.631194,-1.087349,0,0.003457196,0
1786126046.089166,-0.081811,-0.503179,0.031307,-0.215088,0.033936,-0.711670,0.993861,0.052282,-0.092646,-0.030400,0.635303,0.473310,-0.609995,-0.016507,6.395668,-10.426646,-4.088191,107.186463,-49.414745,-66.898095,7.279226,6.405333,-1.760447,0,0.003459606,0
1786126046.109710,-0.100719,-0.317157,0.027712,-0.223877,0.039062,-0.684814,0.993739,0.052011,-0.094088,-0.030426,0.594702,0.473723,-0.649361,-0.015681,6.372240,-10.593115,-4.098752,116.585470,-49.244025,-76.159844,7.267962,6.119993,-2.605137,0,0.003483936,0
1786126046.129258,-0.117098,-0.121948,0.022652,-0.229736,0.041748,-0.670898,0.993720,0.051646,-0.094481,-0.030434,0.552150,0.470517,-0.688143,-0.014258,6.332003,-10.639686,-4.098617,125.867106,-48.287975,-85.473629,7.204699,5.765087,-3.540321,0,0.003459777,0
1786126046.149238,-0.124421,0.078322,0.018391,-0.229736,0.047852,-0.670410,0.993795,0.051288,-0.093889,-0.030415,0.511539,0.462053,-0.724351,-0.012288,6.287124,-10.573226,-4.088362,134.160677,-46.862190,-94.165788,7.104561,5.349209,-4.469120,0,0.003459984,0
1786126046.169231,-0.120693,0.280190,0.012931,-0.223877,0.052979,-0.681641,0.993952,0.051029,-0.092371,-0.030370,0.477985,0.447114,-0.755992,-0.009788,6.248458,-10.400403,-4.069491,140.833419,-45.557378,-101.804426,7.001204,4.891233,-5.302094,0,0.003460673,0
1786126046.189346,-0.108176,0.476997,0.006939,-0.212158,0.057861,-0.701904,0.994175,0.050881,-0.090055,-0.030289,0.457256,0.425962,-0.780657,-0.006901,6.218199,-10.135561,-4.042141,145.466288,-45.075759,-108.062125,6.956834,4.432431,-5.950184,0,0.003466435,0
1786126046.209276,-0.083142,0.663818,-0.000385,-0.194824,0.062988,-0.730957,0.994457,0.050804,-0.086970,-0.030168,0.454392,0.400242,-0.795814,-0.003829,6.191952,-9.782588,-4.005648,147.789104,-46.067495,-112.603681,7.046202,4.027172,-6.338928,0,0.003462865,0
1786126046.229229,-0.055845,0.833728,-0.006510,-0.173584,0.064697,-0.767822,0.994793,0.050804,-0.083103,-0.030010,0.471020,0.372381,-0.799670,-0.000781,6.170750,-9.339964,-3.960444,147.671912,-48.828183,-115.069857,7.333047,3.723251,-6.404382,0,0.003461198,0
