timestamp,gx,gy,gz,ax,ay,az,madgwick_qw,madgwick_qx,madgwick_qy,madgwick_qz,kalman_qw,kalman_qx,kalman_qy,kalman_qz,madgwick_roll_deg,madgwick_pitch_deg,madgwick_yaw_deg,kalman_roll_deg,kalman_pitch_deg,kalman_yaw_deg,robot_accel_x,robot_accel_y,robot_accel_z,kalman_converged,kalman_P_change,convergence_counter
1786463601.572804,0.000267,-0.000366,-0.000051,0.015381,0.001709,-0.998779,1.000000,0.000038,-0.000330,-0.000000,1.000000,0.000856,0.000058,-0.000000,0.004329,-0.037794,-0.000030,0.098062,0.006650,-0.000023,0.015417,0.001735,8.811221,0,0.087903733,0
1786463601.576967,0.000267,-0.000233,-0.000051,0.014893,0.000732,-0.999756,1.000000,0.000056,-0.000661,-0.000001,0.999999,0.001670,0.000094,-0.000000,0.006444,-0.075691,-0.000062,0.191397,0.010770,-0.000023,0.013763,0.017533,8.810230,0,0.029509689,0
1786463601.579048,0.000533,0.000566,0.000216,0.015381,0.001709,-0.999268,1.000000,0.000095,-0.000986,0.000001,0.999996,0.002937,0.000123,-0.000000,0.010849,-0.112959,0.000055,0.336514,0.014095,0.000026,0.013525,0.034490,8.810677,0,0.014816321,0
1786463601.580931,0.000267,0.000167,-0.000184,0.015137,0.001709,-0.998779,0.999999,0.000132,-0.001313,-0.000000,0.999990,0.004463,0.000143,-0.000000,0.015172,-0.150448,-0.000060,0.511423,0.016366,0.000038,0.012720,0.059330,8.811051,0,0.008955142,0
1786463601.582860,-0.000532,0.000300,0.000216,0.015381,0.001221,-0.999023,0.999999,0.000157,-0.001640,0.000001,0.999981,0.006172,0.000156,-0.000000,0.017976,-0.187963,0.000055,0.707290,0.017900,0.000100,0.012573,0.088774,8.810585,0,0.006036582,0
1786463601.584683,-0.000532,-0.000233,0.000082,0.014893,0.001221,-0.999268,0.999998,0.000182,-0.001970,0.000001,0.999967,0.008144,0.000161,-0.000000,0.020853,-0.225777,0.000090,0.933232,0.018433,0.000148,0.011832,0.122308,8.809985,0,0.004367194,0
1786463601.601577,0.000001,-0.000100,-0.000450,0.014404,0.001465,-0.999512,0.999997,0.000215,-0.002299,-0.000001,0.999944,0.010618,0.000156,-0.000004,0.024605,-0.263463,-0.000184,1.216790,0.017861,-0.000248,0.011264,0.161243,8.809187,0,0.003982928,0
1786463601.621756,-0.000532,0.000167,-0.000317,0.014404,0.001221,-0.999023,0.999997,0.000241,-0.002627,-0.000003,0.999906,0.013694,0.000141,-0.000007,0.027573,-0.301040,-0.000381,1.569309,0.016117,-0.000580,0.011312,0.209435,8.808766,0,0.003856272,0
1786463601.641582,-0.000266,0.000167,-0.000051,0.015381,0.001221,-0.999268,0.999996,0.000266,-0.002955,-0.000003,0.999846,0.017564,0.000107,-0.000007,0.030529,-0.338632,-0.000427,2.012769,0.012279,-0.000638,0.012589,0.269827,8.807054,0,0.003748067,0
1786463601.661488,0.000533,-0.000499,-0.000051,0.015381,0.001221,-0.999512,0.999995,0.000296,-0.003286,-0.000003,0.999748,0.022443,0.000035,-0.000008,0.033939,-0.376605,-0.000476,2.571955,0.003979,-0.000831,0.013376,0.345874,8.804432,0,0.003671915,0
1786463601.681468,-0.000665,-0.000233,-0.000450,0.014893,0.001465,-0.998779,0.999993,0.000324,-0.003616,-0.000005,0.999591,0.028604,-0.000088,-0.000013,0.037167,-0.414380,-0.000759,3.278246,-0.010012,-0.001725,0.014253,0.441549,8.801344,0,0.003618748,0
1786463601.701474,0.000001,0.000167,0.000216,0.014893,0.000977,-0.999268,0.999992,0.000348,-0.003944,-0.000004,0.999341,0.036304,-0.000290,-0.000010,0.039937,-0.451998,-0.000656,4.161103,-0.033115,-0.002386,0.016577,0.561961,8.794679,0,0.003580312,0
1786463601.721526,0.000001,-0.000366,-0.000184,0.015381,0.000977,-0.998779,0.999991,0.000372,-0.004275,-0.000005,0.998942,0.045994,-0.000627,-0.000012,0.042651,-0.489925,-0.000784,5.272387,-0.071732,-0.004710,0.021120,0.712801,8.785360,0,0.003553583,0
1786463601.741513,0.000533,0.000300,-0.000317,0.015137,0.001221,-0.999512,0.999989,0.000402,-0.004603,-0.000007,0.998303,0.058215,-0.001168,-0.000015,0.046084,-0.527438,-0.000994,6.674784,-0.133532,-0.009537,0.027354,0.902772,8.768966,0,0.003530792,0
1786463601.761549,0.000267,0.000300,-0.000184,0.015137,0.000977,-0.999268,0.999988,0.000428,-0.004930,-0.000008,0.997291,0.073525,-0.002043,-0.000017,0.048997,-0.564979,-0.001125,8.433040,-0.233303,-0.019136,0.037937,1.141278,8.744207,0,0.003515777,0
1786463601.781735,0.000134,0.000300,-0.000317,0.014648,0.001709,-0.999268,0.999986,0.000463,-0.005257,-0.000009,0.995677,0.092818,-0.003446,-0.000020,0.053011,-0.602417,-0.001347,10.651678,-0.392931,-0.038901,0.054526,1.440394,8.704582,0,0.003510982,0
1786463601.801713,-0.000133,-0.000366,0.000216,0.014404,0.000977,-0.999268,0.999984,0.000487,-0.005588,-0.000008,0.993141,0.116784,-0.005689,-0.000018,0.055812,-0.640331,-0.001255,13.413760,-0.647221,-0.078169,0.081758,1.814167,8.641474,0,0.003498422,0
1786463601.821620,0.000134,0.000034,-0.000583,0.014404,0.000732,-0.999268,0.999982,0.000510,-0.005917,-0.000011,0.989175,0.146449,-0.009219,-0.000023,0.058409,-0.678042,-0.001618,16.844605,-1.044677,-0.157393,0.125184,2.276353,8.542503,0,0.003485953,0
1786463601.841457,0.000134,0.000034,0.000349,0.015381,0.000977,-0.998779,0.999980,0.000534,-0.006246,-0.000009,0.983032,0.182840,-0.014727,-0.000020,0.061249,-0.715736,-0.001452,21.077248,-1.658820,-0.310917,0.194251,2.843240,8.388747,0,0.003473630,0
1786463601.861459,-0.000133,-0.000100,0.000082,0.014893,0.000488,-0.998779,0.999978,0.000552,-0.006576,-0.000009,0.973667,0.226789,-0.023229,-0.000019,0.063319,-0.753546,-0.001432,26.237173,-2.592106,-0.606397,0.298895,3.526919,8.151069,0,0.003471354,0
1786463601.881469,0.000267,0.000300,-0.000051,0.014893,0.001221,-0.999023,0.999976,0.000581,-0.006903,-0.000009,0.959664,0.278824,-0.036094,-0.000018,0.066599,-0.791059,-0.001503,32.441917,-3.971890,-1.158104,0.458496,4.333713,7.791246,0,0.003470006,0
1786463601.901420,-0.000266,0.000034,-0.000317,0.015381,0.001465,-0.999268,0.999974,0.000609,-0.007232,-0.000011,0.939441,0.338257,-0.055076,-0.000020,0.069840,-0.828702,-0.001733,39.715530,-5.938908,-2.149074,0.694852,5.251305,7.259885,0,0.003466460,0
1786463601.921453,0.000001,0.000699,0.000082,0.015381,0.000977,-0.999512,0.999971,0.000634,-0.007557,-0.000010,0.911548,0.402915,-0.082098,-0.000017,0.072614,-0.866013,-0.001726,47.981008,-8.607180,-3.838320,1.030307,6.235689,6.506112,0,0.003467256,0
1786463601.941422,-0.000133,-0.000233,-0.000184,0.014648,0.001221,-0.998779,0.999969,0.000660,-0.007887,-0.000011,0.875257,0.468844,-0.118788,-0.000018,0.075690,-0.903829,-0.001880,57.040970,-12.000654,-6.540587,1.482809,7.207202,5.493865,0,0.003465157,0
1786463601.961751,-0.000133,0.000300,0.000349,0.015137,0.001221,-0.999268,0.999966,0.000687,-0.008215,-0.000009,0.831287,0.530511,-0.165892,-0.000013,0.078710,-0.941344,-0.001730,66.578507,-16.009364,-10.552636,2.054885,8.052478,4.221152,0,0.003478966,0
1786463601.981592,0.000134,0.000034,0.000216,0.015137,0.001221,-0.999512,0.999963,0.000714,-0.008543,-0.000008,0.782217,0.581925,-0.222485,-0.000009,0.081883,-0.979012,-0.001658,76.193244,-20.368223,-16.035024,2.720715,8.653813,2.748633,0,0.003468516,0
1786463602.001465,-0.000266,0.000433,-0.000317,0.014648,0.001465,-0.999512,0.999960,0.000743,-0.008870,-0.000010,0.731563,0.618786,-0.286216,-0.000009,0.085169,-1.016421,-0.001899,85.555749,-24.756257,-22.959147,3.428965,8.932380,1.195322,0,0.003461996,0
1786463602.021649,0.000001,-0.000233,0.000216,0.015381,0.001221,-0.998779,0.999957,0.000770,-0.009200,-0.000009,0.682834,0.639145,-0.353880,-0.000007,0.088249,-1.054243,-0.001832,94.420381,-28.899410,-31.112437,4.123448,8.882853,-0.308492,0,0.003470384,0
1786463602.041537,0.000400,-0.000366,-0.000184,0.014648,0.001465,-0.999023,0.999954,0.000802,-0.009530,-0.000010,0.638555,0.643605,-0.421925,-0.000008,0.091905,-1.092110,-0.002002,102.650739,-32.604287,-40.144312,4.755524,8.564286,-1.661062,0,0.003464049,0
1786463602.061493,-0.000133,0.000034,0.000082,0.014648,0.000977,-0.999023,0.999951,0.000826,-0.009859,-0.000009,0.600072,0.634268,-0.487461,-0.000007,0.094715,-1.129795,-0.002010,110.183560,-35.804021,-49.681168,5.300623,8.064410,-2.808889,0,0.003462171,0
1786463602.081464,0.000267,0.000034,0.000216,0.015137,0.000732,-0.998291,0.999948,0.000850,-0.010188,-0.000008,0.567661,0.614057,-0.548356,-0.000003,0.097448,-1.167501,-0.001938,117.019754,-38.503095,-59.378896,5.754164,7.468257,-3.743423,0,0.003461438,0
1786463602.101429,0.000400,0.000300,-0.000184,0.015381,0.000977,-0.999023,0.999944,0.000877,-0.010516,-0.000009,0.540916,0.586009,-0.603326,-0.000000,0.100504,-1.205037,-0.002102,123.197765,-40.745325,-68.960448,6.122660,6.840076,-4.486710,0,0.003460593,0
1786463602.121449,-0.000399,0.000034,-0.000583,0.014648,0.001221,-0.998535,0.999941,0.000902,-0.010844,-0.000012,0.519089,0.552814,-0.651876,-0.000005,0.103425,-1.242700,-0.002503,128.778409,-42.590920,-78.234723,6.417545,6.220516,-5.067857,0,0.003462321,0
1786463602.141425,0.000001,0.000034,-0.000317,0.014404,0.000977,-0.999023,0.999937,0.000928,-0.011173,-0.000014,0.501490,0.516622,-0.693981,-0.000005,0.106336,-1.280382,-0.002749,133.806306,-44.110456,-87.063597,6.653381,5.631231,-5.522334,0,0.003461730,0
1786463602.161539,0.000134,0.000167,0.000216,0.015137,0.000244,-0.999756,0.999933,0.000947,-0.011502,-0.000012,0.487490,0.479068,-0.729964,-0.000002,0.108526,-1.318042,-0.002673,138.325090,-45.373263,-95.365919,6.843365,5.083436,-5.875467,0,0.003467179,0
1786463602.181490,0.000134,0.000034,0.000082,0.014893,0.001709,-0.999268,0.999930,0.000979,-0.011830,-0.000012,0.476340,0.441715,-0.760255,-0.000000,0.112182,-1.355666,-0.002710,142.388051,-46.408928,-103.074325,6.996664,4.583785,-6.146650,0,0.003464319,0
1786463602.201539,0.000134,0.000167,-0.000317,0.014404,0.001221,-0.998779,0.999926,0.001007,-0.012158,-0.000014,0.467516,0.405288,-0.785602,0.000000,0.115411,-1.393252,-0.002967,146.048689,-47.270265,-110.203786,7.119576,4.129428,-6.357001,0,0.003466335,0
1786463602.221757,-0.000133,-0.000366,-0.000184,0.014648,0.001221,-0.999756,0.999921,0.001033,-0.012489,-0.000015,0.460616,0.370406,-0.806618,-0.000003,0.118468,-1.431146,-0.003150,149.342013,-47.994444,-116.755455,7.220652,3.718832,-6.521438,0,0.003475104,0
1786463602.241458,-0.000266,-0.000233,0.000216,0.014893,0.000977,-0.998047,0.999917,0.001057,-0.012819,-0.000013,0.455306,0.337532,-0.823874,-0.000004,0.121193,-1.468983,-0.003099,152.297733,-48.610064,-122.735036,7.304495,3.348487,-6.645344,0,0.003459651,0
1786463602.261500,0.000400,-0.000499,0.000082,0.014893,0.001953,-0.999512,0.999913,0.001092,-0.013150,-0.000013,0.451224,0.306942,-0.837964,-0.000001,0.125199,-1.506893,-0.003151,154.954180,-49.131921,-128.169961,7.374569,3.017170,-6.742310,0,0.003462547,0
1786463602.281415,-0.000133,0.000566,0.000082,0.014893,0.001221,-0.998779,0.999909,0.001119,-0.013476,-0.000013,0.448174,0.278562,-0.849437,-0.000000,0.128240,-1.544254,-0.003186,157.347066,-49.586942,-133.115162,7.433463,2.718609,-6.813994,0,0.003459303,0
1786463602.301442,0.000533,0.000167,-0.000317,0.015381,0.001221,-0.998779,0.999904,0.001148,-0.013804,-0.000014,0.445976,0.252452,-0.858705,0.000003,0.131631,-1.581845,-0.003451,159.498961,-49.989279,-137.596309,7.484627,2.450654,-6.867914,0,0.003461625,0
1786463602.321498,0.000134,0.000034,-0.000051,0.015137,0.000977,-0.998779,0.999899,0.001174,-0.014133,-0.000014,0.444418,0.228525,-0.866180,0.000003,0.134598,-1.619529,-0.003561,161.441138,-50.344408,-141.658810,7.528854,2.209887,-6.906474,0,0.003464600,0
1786463602.341428,0.000134,-0.000233,0.000216,0.014893,0.000977,-0.999023,0.999895,0.001200,-0.014463,-0.000013,0.443372,0.206721,-0.872174,0.000004,0.137578,-1.657364,-0.003521,163.192566,-50.659947,-145.331753,7.567538,1.993500,-6.933963,0,0.003461485,0
1786463602.361427,0.000267,-0.000100,0.000082,0.015381,0.001465,-0.999023,0.999890,0.001230,-0.014792,-0.000013,0.442798,0.186947,-0.876916,0.000005,0.141019,-1.695091,-0.003570,164.764970,-50.949790,-148.639067,7.602399,1.799616,-6.952166,0,0.003462095,0
1786463602.381422,0.000134,0.000167,-0.000051,0.015137,0.001221,-0.999268,0.999885,0.001258,-0.015120,-0.000013,0.442556,0.168996,-0.880673,0.000005,0.144201,-1.732681,-0.003692,166.185683,-51.214404,-151.629031,7.633544,1.625269,-6.962357,0,0.003462390,0
1786463602.401432,0.000134,0.000034,0.000349,0.015381,0.001465,-0.998535,0.999880,0.001287,-0.015448,-0.000011,0.442617,0.152766,-0.883602,0.000006,0.147562,-1.770332,-0.003593,167.464826,-51.462138,-154.322545,7.662246,1.468689,-6.965847,0,0.003463253,0
1786463602.421869,0.000134,-0.000233,-0.000051,0.015381,0.001709,-0.999512,0.999875,0.001318,-0.015778,-0.000012,0.442903,0.138095,-0.885870,0.000006,0.151128,-1.808117,-0.003731,168.619260,-51.694013,-156.752245,7.688700,1.328230,-6.965802,0,0.003482103,0
1786463602.441550,0.000134,0.000566,-0.000184,0.015137,0.000977,-0.998779,0.999869,0.001344,-0.016104,-0.000013,0.443368,0.124804,-0.887609,0.000005,0.154128,-1.845493,-0.003929,169.665716,-51.913032,-158.951466,7.713220,1.200907,-6.959969,0,0.003464057,0
1786463602.461555,-0.000266,-0.000233,0.000082,0.014160,0.001221,-0.999268,0.999864,0.001371,-0.016434,-0.000012,0.443891,0.112839,-0.888948,0.000003,0.157155,-1.883306,-0.003985,170.612662,-52.110163,-160.934133,7.735343,1.086800,-6.952498,0,0.003464278,0
1786463602.481493,0.000267,-0.000366,-0.000051,0.014893,0.001465,-0.999268,0.999858,0.001401,-0.016765,-0.000012,0.444599,0.102074,-0.889895,0.000003,0.160630,-1.921182,-0.004125,171.463846,-52.306542,-162.715616,7.756832,0.984128,-6.943412,0,0.003461612,0
1786463602.501534,0.000134,-0.000366,-0.000317,0.014893,0.001709,-0.999023,0.999853,0.001432,-0.017095,-0.000014,0.445406,0.092394,-0.890548,0.000002,0.164225,-1.959041,-0.004426,172.230795,-52.496150,-164.318119,7.777431,0.892075,-6.930831,0,0.003463955,0
1786463602.521487,-0.000133,-0.000233,0.000216,0.015381,0.000732,-0.999023,0.999847,0.001455,-0.017425,-0.000013,0.446343,0.083561,-0.890952,0.000002,0.166884,-1.996888,-0.004398,172.931638,-52.687389,-165.780578,7.797752,0.808092,-6.916707,0,0.003461961,0
1786463602.541615,0.000134,-0.000366,0.000216,0.015137,0.000732,-0.999268,0.999841,0.001480,-0.017756,-0.000012,0.447323,0.075597,-0.891172,0.000003,0.169709,-2.034811,-0.004372,173.567071,-52.871530,-167.101665,7.817383,0.732416,-6.900598,0,0.003467960,0
1786463602.561495,-0.000133,0.000300,-0.000184,0.015137,0.001465,-0.999023,0.999835,0.001508,-0.018083,-0.000013,0.448362,0.068506,-0.891223,0.000001,0.172933,-2.072308,-0.004595,174.134294,-53.051940,-168.279126,7.836526,0.664938,-6.883050,0,0.003461906,0
1786463602.581475,0.000533,0.000300,0.000082,0.015137,0.001221,-0.998779,0.999829,0.001538,-0.018411,-0.000012,0.449445,0.062090,-0.891148,0.000005,0.176353,-2.109821,-0.004661,174.651027,-53.229881,-169.347067,7.855136,0.603771,-6.864565,0,0.003461593,0
1786463602.601573,-0.000266,-0.000100,-0.000184,0.015137,0.000488,-0.999512,0.999823,0.001559,-0.018740,-0.000013,0.450562,0.056225,-0.890973,0.000001,0.178796,-2.147602,-0.004862,175.124843,-53.405682,-170.324886,7.873361,0.547976,-6.846277,0,0.003466399,0
1786463602.621472,0.000134,-0.000233,-0.000184,0.014893,0.001953,-0.999023,0.999817,0.001592,-0.019070,-0.000014,0.451682,0.051099,-0.890714,0.000001,0.182527,-2.185371,-0.005106,175.541379,-53.575464,-171.181398,7.891083,0.498974,-6.826089,0,0.003461499,0
1786463602.641495,0.000134,-0.000100,-0.000184,0.014893,0.001953,-0.999268,0.999811,0.001624,-0.019399,-0.000015,0.452827,0.046476,-0.890386,0.000001,0.186259,-2.223064,-0.005352,175.918907,-53.743927,-171.955469,7.908394,0.454783,-6.806477,0,0.003463105,0
1786463602.661735,0.000134,0.000167,0.000349,0.014893,0.001221,-0.999023,0.999804,0.001652,-0.019727,-0.000013,0.453996,0.042218,-0.890003,0.000003,0.189470,-2.260652,-0.005275,176.269111,-53.912286,-172.670406,7.925522,0.414038,-6.785873,0,0.003473617,0
1786463602.681494,-0.000133,0.000034,-0.000184,0.014893,0.000977,-0.999023,0.999797,0.001677,-0.020055,-0.000014,0.455179,0.038361,-0.889573,0.000001,0.192373,-2.298328,-0.005499,176.587580,-54.079329,-173.319511,7.942515,0.377017,-6.765088,0,0.003460974,0
1786463602.701522,0.000134,-0.000233,0.000216,0.014893,0.001221,-0.999756,0.999791,0.001705,-0.020385,-0.000013,0.456371,0.034902,-0.889105,0.000003,0.195584,-2.336144,-0.005502,176.875235,-54.244987,-173.903174,7.959300,0.343735,-6.744769,0,0.003462961,0
1786463602.721673,-0.000266,0.000167,-0.000051,0.014893,0.001221,-0.999023,0.999784,0.001731,-0.020713,-0.000013,0.457578,0.031778,-0.888602,0.000000,0.198575,-2.373731,-0.005660,177.135690,-54.410607,-174.431142,7.975951,0.313723,-6.722658,0,0.003469692,0
1786463602.741766,0.000134,0.000433,0.000082,0.014893,0.001221,-0.999268,0.999777,0.001759,-0.021040,-0.000013,0.458795,0.028957,-0.888070,0.000001,0.201789,-2.411165,-0.005743,177.372850,-54.575946,-174.909472,7.992518,0.286483,-6.701216,0,0.003472264,0
1786463602.761754,-0.000532,0.000300,-0.000184,0.014893,0.000977,-0.999023,0.999770,0.001783,-0.021367,-0.000014,0.460018,0.026383,-0.887517,-0.000003,0.204469,-2.448688,-0.005974,177.589497,-54.740715,-175.346468,8.008943,0.261697,-6.679101,0,0.003469736,0
1786463602.781478,0.000267,0.000167,0.000082,0.014893,0.001465,-0.998779,0.999763,0.001813,-0.021695,-0.000014,0.461243,0.024114,-0.886946,-0.000000,0.207914,-2.486262,-0.006069,177.782542,-54.904508,-175.733170,8.025248,0.239605,-6.656836,0,0.003456591,0
1786463602.801492,-0.000399,0.000300,0.000082,0.014893,0.001465,-0.999268,0.999756,0.001840,-0.022022,-0.000013,0.462472,0.022060,-0.886359,-0.000003,0.210980,-2.523760,-0.006165,177.957369,-55.068068,-176.083645,8.041419,0.219728,-6.635164,0,0.003459021,0
1786463602.821439,0.000267,0.000034,0.000482,0.015137,0.000977,-0.999023,0.999748,0.001867,-0.022351,-0.000011,0.463723,0.020149,-0.885751,0.000001,0.214093,-2.561437,-0.006020,178.122265,-55.233893,-176.411314,8.057703,0.201085,-6.612684,0,0.003458019,0
1786463602.841442,0.000134,0.000034,0.000082,0.015381,0.001221,-0.998291,0.999741,0.001894,-0.022680,-0.000010,0.464998,0.018448,-0.885119,0.000002,0.217281,-2.599103,-0.006113,178.268960,-55.402154,-176.703070,8.074169,0.184488,-6.589216,0,0.003459664,0
1786463602.861446,0.000400,0.000300,-0.000184,0.014404,0.000977,-0.998779,0.999733,0.001923,-0.023007,-0.000011,0.466194,0.016886,-0.884521,0.000004,0.220527,-2.636623,-0.006355,178.405435,-55.559828,-176.972549,8.089614,0.169226,-6.566434,0,0.003460912,0
1786463602.881443,-0.000133,-0.000233,-0.000184,0.015625,0.001221,-0.999512,0.999726,0.001949,-0.023337,-0.000012,0.467488,0.015496,-0.883864,0.000002,0.223560,-2.674441,-0.006605,178.525964,-55.729810,-177.211879,8.106074,0.155648,-6.545401,0,0.003461558,0
1786463602.901445,0.000267,0.000300,-0.000051,0.014893,0.000732,-0.998779,0.999718,0.001975,-0.023664,-0.000012,0.468727,0.014185,-0.883229,0.000003,0.226557,-2.711975,-0.006767,178.641691,-55.892486,-177.439137,8.121825,0.142810,-6.520877,0,0.003462279,0
1786463602.921465,0.000001,-0.000499,0.000216,0.014404,0.001465,-0.998779,0.999710,0.002004,-0.023995,-0.000011,0.469918,0.013073,-0.882613,0.000003,0.229864,-2.749929,-0.006803,178.740040,-56.048605,-177.632215,8.136901,0.131828,-6.498248,0,0.003463562,0
1786463602.941634,-0.000266,0.000034,-0.000184,0.014893,0.001465,-0.999023,0.999702,0.002031,-0.024324,-0.000012,0.471155,0.012066,-0.881968,0.000000,0.233003,-2.787579,-0.007067,178.828519,-56.210586,-177.806673,8.152405,0.121996,-6.476474,0,0.003470936,0
1786463602.961837,0.000134,-0.000100,-0.000184,0.014404,0.000977,-0.999023,0.999694,0.002058,-0.024653,-0.000013,0.472351,0.011103,-0.881341,0.000000,0.236105,-2.825328,-0.007320,178.914906,-56.367171,-177.974993,8.167359,0.112534,-6.453654,0,0.003477902,0
1786463602.981829,0.000001,0.000433,0.000082,0.014648,0.001221,-0.998779,0.999686,0.002086,-0.024980,-0.000013,0.473571,0.010253,-0.880696,0.000001,0.239255,-2.862762,-0.007428,178.991213,-56.526827,-178.123584,8.182541,0.104102,-6.431186,0,0.003474167,0
1786463603.001513,0.000400,-0.000366,-0.000184,0.015137,0.001221,-0.998291,0.999677,0.002115,-0.025310,-0.000014,0.474823,0.009487,-0.880030,0.000003,0.242619,-2.900654,-0.007692,179.060461,-56.690554,-178.257859,8.198052,0.096467,-6.408183,0,0.003458214,0
1786463603.021513,0.000001,0.000300,-0.000184,0.015137,0.000488,-0.999268,0.999669,0.002139,-0.025638,-0.000014,0.476079,0.008712,-0.879360,0.000001,0.245339,-2.938197,-0.007935,179.130992,-56.854894,-178.394377,8.213551,0.088855,-6.385760,0,0.003459629,0
1786463603.041468,0.000001,0.000300,-0.000450,0.014893,0.001465,-0.999023,0.999661,0.002167,-0.025965,-0.000017,0.477313,0.008115,-0.878696,-0.000001,0.248630,-2.975694,-0.008362,179.184573,-57.016332,-178.498877,8.228725,0.082887,-6.362086,0,0.003458842,0
1786463603.061438,-0.000266,-0.000100,0.000349,0.015625,0.001221,-0.999268,0.999652,0.002193,-0.026294,-0.000015,0.478603,0.007539,-0.877999,-0.000001,0.251575,-3.013437,-0.008324,179.236822,-57.185151,-178.600092,8.244496,0.077195,-6.339306,0,0.003458847,0
1786463603.081436,-0.000133,0.000034,-0.000184,0.015381,0.001953,-0.999023,0.999643,0.002223,-0.026623,-0.000016,0.479873,0.007100,-0.877309,-0.000002,0.255026,-3.051066,-0.008616,179.275831,-57.351319,-178.676577,8.259965,0.072808,-6.314841,0,0.003460066,0
1786463603.101561,-0.000532,0.000300,-0.000051,0.015137,0.001221,-0.998047,0.999634,0.002247,-0.026950,-0.000016,0.481126,0.006621,-0.876626,-0.000006,0.257855,-3.088577,-0.008812,179.319186,-57.515403,-178.760899,8.275133,0.068175,-6.289935,0,0.003466378,0
1786463603.121463,-0.000399,-0.000366,-0.000317,0.014648,0.000977,-0.998535,0.999625,0.002272,-0.027280,-0.000018,0.482330,0.006163,-0.875968,-0.000009,0.260654,-3.126478,-0.009158,179.361265,-57.673186,-178.842055,8.289697,0.063674,-6.266908,0,0.003461645,0
1786463603.141483,-0.000399,-0.000100,0.000082,0.014893,0.000977,-0.999268,0.999616,0.002296,-0.027610,-0.000017,0.483555,0.005744,-0.875295,-0.000010,0.263428,-3.164228,-0.009276,179.400293,-57.833723,-178.916730,8.304447,0.059485,-6.244834,0,0.003463093,0
1786463603.161494,-0.000399,-0.000233,-0.000184,0.014160,0.000732,-0.999268,0.999607,0.002319,-0.027940,-0.000018,0.484717,0.005339,-0.874655,-0.000012,0.266108,-3.202062,-0.009543,179.438404,-57.986117,-178.989305,8.318366,0.055468,-6.221649,0,0.003463804,0
1786463603.181695,0.000267,-0.000233,-0.000450,0.014648,0.000732,-0.999268,0.999598,0.002345,-0.028270,-0.000021,0.485919,0.004975,-0.873990,-0.000009,0.269156,-3.239898,-0.009964,179.473420,-58.143835,-179.055023,8.332716,0.051753,-6.199581,0,0.003472460,0
1786463603.201752,-0.000532,-0.000100,0.000216,0.015137,0.001953,-0.998779,0.999588,0.002373,-0.028599,-0.000020,0.487161,0.004765,-0.873299,-0.000010,0.272346,-3.277605,-0.010040,179.491707,-58.306875,-179.091247,8.347503,0.049557,-6.176183,0,0.003472827,0
1786463603.221506,0.000267,0.000167,-0.000184,0.015381,0.001709,-0.999268,0.999579,0.002404,-0.028926,-0.000021,0.488421,0.004555,-0.872596,-0.000007,0.275867,-3.315172,-0.010338,179.511096,-58.472463,-179.128237,8.362473,0.047434,-6.152913,0,0.003460204,0
1786463603.241515,0.000400,0.000566,-0.000450,0.015381,0.001221,-0.999023,0.999569,0.002433,-0.029252,-0.000023,0.489684,0.004314,-0.871889,-0.000005,0.279224,-3.352531,-0.010776,179.533951,-58.638506,-179.171314,8.377374,0.045026,-6.128473,0,0.003461531,0
1786463603.261452,0.000267,0.000034,0.000082,0.014648,0.001465,-0.998779,0.999559,0.002463,-0.029581,-0.000022,0.490881,0.004115,-0.871217,-0.000002,0.282646,-3.390183,-0.010921,179.552830,-58.795923,-179.206752,8.391418,0.042952,-6.104081,0,0.003459478,0
1786463603.281530,0.000001,0.000167,0.000082,0.015381,0.001221,-0.999756,0.999550,0.002490,-0.029909,-0.000022,0.492136,0.003907,-0.870509,-0.000001,0.285762,-3.427772,-0.011059,179.572440,-58.961226,-179.243953,8.406160,0.040873,-6.082015,0,0.003463952,0
1786463603.302075,0.000267,0.000300,0.000216,0.014404,0.000977,-0.999268,0.999540,0.002517,-0.030236,-0.000021,0.493315,0.003691,-0.869843,0.000002,0.288944,-3.465291,-0.011117,179.593908,-59.116557,-179.283487,8.419826,0.038657,-6.057288,0,0.003487259,0
1786463603.321707,0.000134,-0.000100,0.000082,0.015137,0.000977,-0.999268,0.999530,0.002544,-0.030565,-0.000020,0.494546,0.003494,-0.869144,0.000003,0.292027,-3.503041,-0.011253,179.612948,-59.278850,-179.319103,8.434199,0.036639,-6.034565,0,0.003465831,0
1786463603.341724,-0.000532,0.000034,0.000349,0.015137,0.001953,-0.999268,0.999519,0.002572,-0.030893,-0.000019,0.495776,0.003415,-0.868444,-0.000000,0.295199,-3.540675,-0.011267,179.618392,-59.441137,-179.331545,8.448442,0.035802,-6.010687,0,0.003466121,0
1786463603.361984,0.000001,-0.000499,0.000082,0.014648,0.000977,-0.999268,0.999509,0.002598,-0.031225,-0.000018,0.496962,0.003243,-0.867766,0.000000,0.298227,-3.578652,-0.011409,179.635079,-59.597690,-179.362722,8.462061,0.034181,-5.986875,0,0.003476735,0
1786463603.381677,0.000267,-0.000100,0.000082,0.014404,0.000977,-0.999268,0.999499,0.002626,-0.031554,-0.000018,0.498127,0.003088,-0.867099,0.000002,0.301417,-3.616400,-0.011553,179.650573,-59.751714,-179.391184,8.475454,0.032556,-5.963716,0,0.003460541,0
1786463603.401647,0.000134,0.000167,0.000082,0.015137,0.001953,-0.999023,0.999488,0.002657,-0.031882,-0.000017,0.499353,0.003050,-0.866393,0.000003,0.304972,-3.653957,-0.011726,179.652499,-59.913784,-179.396324,8.489527,0.032064,-5.940673,0,0.003460108,0
1786463603.421786,-0.000133,-0.000366,0.000082,0.015137,0.000977,-0.999512,0.999477,0.002682,-0.032212,-0.000017,0.500573,0.002910,-0.865690,0.000002,0.307911,-3.691859,-0.011873,179.665744,-60.075233,-179.421468,8.503419,0.030802,-5.917262,0,0.003467037,0
1786463603.441588,-0.000133,0.000433,0.000216,0.014893,0.000732,-0.998779,0.999467,0.002707,-0.032539,-0.000016,0.501778,0.002756,-0.864992,0.000002,0.310738,-3.729312,-0.011936,179.681073,-60.234845,-179.449845,8.517077,0.029259,-5.892463,0,0.003457890,0
1786463603.461517,-0.000266,-0.000233,0.000082,0.015381,0.001221,-0.999268,0.999456,0.002733,-0.032869,-0.000015,0.503014,0.002669,-0.864274,-0.000000,0.313704,-3.767129,-0.012093,179.688549,-60.398694,-179.464915,8.531101,0.028341,-5.869368,0,0.003456370,0
1786463603.481480,0.000001,-0.000233,0.000349,0.014893,0.001465,-0.998291,0.999445,0.002761,-0.033198,-0.000014,0.504210,0.002614,-0.863577,0.000001,0.316944,-3.804936,-0.012109,179.692988,-60.557361,-179.473884,8.544505,0.027746,-5.844023,0,0.003456687,0
1786463603.501577,0.000533,-0.000100,-0.000184,0.014893,0.001221,-0.999268,0.999434,0.002791,-0.033528,-0.000015,0.505405,0.002545,-0.862879,0.000004,0.320396,-3.842675,-0.012424,179.699535,-60.716033,-179.486101,8.557904,0.027039,-5.821340,0,0.003462656,0
1786463603.521819,-0.000133,0.000167,-0.000184,0.015381,0.001221,-0.998779,0.999423,0.002817,-0.033855,-0.000016,0.506642,0.002479,-0.862153,0.000002,0.323451,-3.880262,-0.012739,179.704590,-60.880404,-179.496943,8.571740,0.026429,-5.797132,0,0.003473318,0
1786463603.541847,-0.000266,0.000433,-0.000184,0.015381,0.001221,-0.999023,0.999412,0.002843,-0.034182,-0.000016,0.507879,0.002419,-0.861425,-0.000001,0.326430,-3.917697,-0.013056,179.708902,-61.044910,-179.506562,8.585496,0.025891,-5.772767,0,0.003472278,0
1786463603.561815,-0.000266,-0.000499,0.000216,0.014893,0.000732,-0.998535,0.999400,0.002867,-0.034513,-0.000015,0.509067,0.002310,-0.860724,-0.000002,0.329190,-3.955683,-0.013134,179.719850,-61.203059,-179.526791,8.598590,0.024850,-5.747815,0,0.003468857,0
1786463603.581889,0.000134,-0.000233,-0.000450,0.015137,0.001709,-0.999268,0.999389,0.002897,-0.034843,-0.000018,0.510275,0.002322,-0.860008,-0.000003,0.332632,-3.993479,-0.013626,179.716154,-61.363888,-179.522198,8.611935,0.024880,-5.724796,0,0.003470860,0
1786463603.601739,-0.000266,0.000034,0.000082,0.015625,0.000732,-0.999268,0.999377,0.002921,-0.035171,-0.000017,0.511521,0.002223,-0.859268,-0.000004,0.335376,-4.031161,-0.013781,179.725866,-61.530028,-179.540316,8.625680,0.024034,-5.700599,0,0.003462809,0
1786463603.621892,-0.000399,-0.000100,-0.000051,0.015625,0.001221,-0.998779,0.999365,0.002946,-0.035501,-0.000018,0.512766,0.002186,-0.858526,-0.000006,0.338261,-4.068902,-0.014030,179.727803,-61.696084,-179.545597,8.639264,0.023641,-5.675151,0,0.003469662,0
1786463603.641798,0.000400,0.000300,-0.000317,0.014893,0.000732,-0.999023,0.999354,0.002973,-0.035828,-0.000019,0.513952,0.002106,-0.857816,-0.000003,0.341426,-4.106429,-0.014420,179.736325,-61.854558,-179.560669,8.652085,0.022847,-5.650315,0,0.003464251,0
1786463603.662649,-0.000266,-0.000366,-0.000051,0.015137,0.001709,-0.998779,0.999342,0.003001,-0.036158,-0.000019,0.515156,0.002133,-0.857094,-0.000005,0.344616,-4.144304,-0.014690,179.730628,-62.015385,-179.552927,8.665099,0.023039,-5.626285,0,0.003500606,0
1786463603.681694,0.000400,0.000034,-0.000184,0.015137,0.000244,-0.998779,0.999330,0.003026,-0.036487,-0.000020,0.516354,0.002005,-0.856373,-0.000002,0.347561,-4.181999,-0.014993,179.745436,-62.175765,-179.578272,8.678092,0.021881,-5.601913,0,0.003450826,0
1786463603.701521,-0.000532,-0.000233,0.000082,0.014893,0.001709,-0.998779,0.999317,0.003053,-0.036817,-0.000020,0.517529,0.002038,-0.855663,-0.000005,0.350599,-4.219797,-0.015191,179.738608,-62.333014,-179.568943,8.690675,0.022087,-5.577697,0,0.003446740,0
1786463603.721489,-0.000133,-0.000100,-0.000051,0.015137,0.001221,-0.999268,0.999305,0.003079,-0.037146,-0.000020,0.518723,0.002021,-0.854940,-0.000005,0.353653,-4.257537,-0.015452,179.738825,-62.492888,-179.570701,8.703465,0.022023,-5.554332,0,0.003449623,0
1786463603.741434,-0.000399,0.000034,0.000216,0.014893,0.001221,-0.999268,0.999293,0.003104,-0.037474,-0.000019,0.519896,0.002002,-0.854227,-0.000006,0.356551,-4.295202,-0.015561,179.739073,-62.650241,-179.572632,8.715910,0.021872,-5.530048,0,0.003450838,0
1786463603.761513,0.000267,0.000300,-0.000450,0.014648,0.000977,-0.999268,0.999280,0.003132,-0.037801,-0.000021,0.521052,0.001968,-0.853523,-0.000005,0.359763,-4.332719,-0.016048,179.741852,-62.805327,-179.578246,8.728100,0.021556,-5.506090,0,0.003457472,0
1786463603.781569,-0.000133,-0.000233,-0.000051,0.014893,0.000977,-0.999512,0.999268,0.003158,-0.038131,-0.000022,0.522220,0.001931,-0.852808,-0.000005,0.362724,-4.370543,-0.016308,179.744620,-62.962318,-179.584110,8.740463,0.021197,-5.482826,0,0.003461486,0
1786463603.801475,0.000001,0.000167,-0.000051,0.015137,0.001221,-0.999512,0.999255,0.003185,-0.038459,-0.000022,0.523410,0.001925,-0.852079,-0.000005,0.365852,-4.408130,-0.016576,179.743621,-63.122178,-179.583618,8.752995,0.021106,-5.458833,0,0.003458110,0
1786463603.821457,-0.000266,0.000300,0.000082,0.015381,0.000732,-0.999756,0.999242,0.003209,-0.038786,-0.000021,0.524617,0.001865,-0.851336,-0.000005,0.368616,-4.445658,-0.016752,179.749425,-63.284657,-179.594502,8.765659,0.020587,-5.434657,0,0.003458812,0
1786463603.841463,0.000001,-0.000233,0.000216,0.014648,0.001221,-0.998779,0.999229,0.003236,-0.039116,-0.000020,0.525762,0.001863,-0.850630,-0.000003,0.371747,-4.483475,-0.016874,179.748230,-63.438830,-179.593379,8.777421,0.020470,-5.408944,0,0.003460380,0
1786463603.861621,0.000134,-0.000100,-0.000317,0.015137,0.001221,-0.998535,0.999216,0.003264,-0.039445,-0.000022,0.526946,0.001867,-0.849897,-0.000003,0.374963,-4.521214,-0.017302,179.745804,-63.598387,-179.590693,8.789756,0.020540,-5.385081,0,0.003468045,0
1786463603.881467,-0.000266,0.000300,-0.000184,0.014893,0.001221,-0.999023,0.999203,0.003290,-0.039772,-0.000023,0.528111,0.001868,-0.849173,-0.000005,0.377952,-4.558724,-0.017654,179.743179,-63.755498,-179.588165,8.801728,0.020629,-5.361047,0,0.003460494,0
1786463603.901484,-0.000133,0.000300,-0.000184,0.014893,0.001709,-0.999512,0.999190,0.003318,-0.040099,-0.000024,0.529273,0.001924,-0.848449,-0.000006,0.381212,-4.596218,-0.018024,179.733367,-63.912437,-179.573856,8.813657,0.021197,-5.337423,0,0.003462107,0
1786463603.921455,-0.000399,0.000034,0.000082,0.014648,0.001953,-0.998535,0.999177,0.003345,-0.040427,-0.000024,0.530414,0.001999,-0.847736,-0.000007,0.384412,-4.633856,-0.018253,179.720505,-64.066516,-179.554859,8.825239,0.022048,-5.312373,0,0.003461359,0
1786463603.941443,0.000134,-0.000233,0.000216,0.015381,0.001465,-0.999023,0.999163,0.003374,-0.040757,-0.000022,0.531607,0.002019,-0.846989,-0.000004,0.387694,-4.671666,-0.018391,179.716250,-64.227856,-179.548784,8.837517,0.022343,-5.289196,0,0.003461522,0
1786463603.961561,-0.000399,-0.000366,0.000082,0.014648,0.001709,-0.999512,0.999150,0.003401,-0.041087,-0.000022,0.532740,0.002063,-0.846276,-0.000006,0.390797,-4.709542,-0.018618,179.707482,-64.381214,-179.536556,8.848819,0.022852,-5.264847,0,0.003467197,0
1786463603.981543,0.000267,0.000433,0.000349,0.014893,0.000977,-0.998779,0.999136,0.003428,-0.041414,-0.000020,0.533898,0.002026,-0.845546,-0.000001,0.393975,-4.746985,-0.018666,179.711410,-64.538079,-179.543234,8.860516,0.022548,-5.240309,0,0.003465654,0
1786463604.001532,0.000666,-0.000233,0.000082,0.015381,0.001221,-1.000000,0.999122,0.003459,-0.041743,-0.000020,0.535085,0.002021,-0.844796,0.000004,0.397474,-4.784803,-0.018879,179.710876,-64.698991,-179.542695,8.872528,0.022392,-5.217416,0,0.003464827,0
1786463604.021525,0.000001,-0.000233,0.000349,0.014893,0.001953,-0.998535,0.999108,0.003488,-0.042073,-0.000018,0.536234,0.002092,-0.844067,0.000005,0.400878,-4.822595,-0.018966,179.698597,-64.854846,-179.524566,8.883849,0.023047,-5.191060,0,0.003464324,0
1786463604.041561,0.000267,-0.000233,-0.000184,0.015137,0.000977,-0.999512,0.999094,0.003516,-0.042403,-0.000019,0.537398,0.002058,-0.843326,0.000005,0.404082,-4.860418,-0.019329,179.701087,-65.013069,-179.529882,8.895465,0.022915,-5.167892,0,0.003465810,0
1786463604.061493,-0.000133,-0.000366,-0.000450,0.014404,0.000732,-0.999268,0.999080,0.003541,-0.042733,-0.000021,0.538504,0.002002,-0.842621,0.000001,0.407000,-4.898322,-0.019843,179.706097,-65.163330,-179.539882,8.906199,0.022442,-5.143133,0,0.003462520,0
1786463604.081661,0.000400,-0.000233,0.000082,0.014893,0.001221,-0.999268,0.999066,0.003570,-0.043063,-0.000021,0.539647,0.002001,-0.841889,0.000004,0.410367,-4.936138,-0.020065,179.704538,-65.318871,-179.538199,8.917535,0.022309,-5.119779,0,0.003470053,0
1786463604.101559,0.000001,0.000167,0.000082,0.014893,0.001465,-0.999268,0.999052,0.003598,-0.043391,-0.000020,0.540791,0.002026,-0.841155,0.000004,0.413597,-4.973717,-0.020297,179.698417,-65.474651,-179.530133,8.928721,0.022574,-5.095524,0,0.003464233,0
1786463604.121697,0.000267,0.000167,-0.000184,0.015137,0.000732,-0.999512,0.999037,0.003625,-0.043718,-0.000021,0.541953,0.001974,-0.840407,0.000004,0.416716,-5.011318,-0.020659,179.703847,-65.632978,-179.539900,8.940070,0.022177,-5.071515,0,0.003470102,0
1786463604.141689,0.000267,0.000167,0.000216,0.014893,0.001465,-0.998779,0.999023,0.003654,-0.044046,-0.000020,0.543094,0.002001,-0.839669,0.000006,0.420092,-5.048898,-0.020818,179.697707,-65.788684,-179.531342,8.951044,0.022325,-5.046107,0,0.003468284,0
1786463604.161501,0.000400,0.000167,-0.000317,0.015381,0.001465,-0.998779,0.999008,0.003684,-0.044374,-0.000022,0.544270,0.002033,-0.838908,0.000006,0.423557,-5.086476,-0.021284,179.690396,-65.949231,-179.521461,8.962498,0.022715,-5.021806,0,0.003459229,0
1786463604.181481,0.000267,0.000034,-0.000051,0.015381,0.001465,-0.998779,0.998993,0.003714,-0.044702,-0.000022,0.545443,0.002060,-0.838145,0.000007,0.426935,-5.124132,-0.021600,179.683648,-66.109517,-179.512457,8.973725,0.023056,-4.996741,0,0.003459598,0
1786463604.201527,0.000134,0.000433,-0.000317,0.014648,0.001221,-0.998291,0.998979,0.003742,-0.045028,-0.000023,0.546563,0.002062,-0.837416,0.000005,0.430186,-5.161564,-0.022064,179.680332,-66.262623,-179.509160,8.984174,0.023203,-4.971102,0,0.003462648,0
1786463604.221657,-0.000133,-0.000233,0.000082,0.014893,0.000732,-0.999023,0.998964,0.003767,-0.045358,-0.000023,0.547693,0.002008,-0.836677,0.000004,0.433082,-5.199393,-0.022286,179.685849,-66.417422,-179.519339,8.994950,0.022760,-4.947971,0,0.003468556,0
1786463604.241507,0.000134,0.000433,-0.000184,0.015137,0.001221,-0.998779,0.998949,0.003795,-0.045684,-0.000024,0.548845,0.002014,-0.835921,0.000003,0.436311,-5.236826,-0.022676,179.682056,-66.575304,-179.515118,9.005883,0.022762,-4.923333,0,0.003461037,0
1786463604.261476,0.000267,-0.000366,-0.000450,0.014893,0.001709,-0.999268,0.998933,0.003825,-0.046015,-0.000026,0.549970,0.002077,-0.835182,0.000002,0.439812,-5.274700,-0.023241,179.669285,-66.729502,-179.497299,9.016357,0.023410,-4.899174,0,0.003460473,0
1786463604.281476,-0.000133,-0.000100,-0.000184,0.014404,0.001465,-0.999023,0.998918,0.003852,-0.046344,-0.000027,0.551058,0.002106,-0.834464,0.000000,0.443001,-5.312429,-0.023647,179.661365,-66.878870,-179.487176,9.026352,0.023879,-4.874638,0,0.003461389,0
1786463604.301453,0.000134,0.000433,0.000216,0.014893,0.001709,-0.998779,0.998903,0.003882,-0.046670,-0.000026,0.552187,0.002158,-0.833718,0.000002,0.446391,-5.349849,-0.023830,179.650448,-67.033849,-179.471811,9.036955,0.024427,-4.850789,0,0.003461044,0
1786463604.321470,-0.000399,-0.000100,0.000082,0.015625,0.001221,-0.998779,0.998887,0.003907,-0.046999,-0.000026,0.553364,0.002155,-0.832937,-0.000001,0.449293,-5.387589,-0.024077,179.647305,-67.195782,-179.469260,9.048033,0.024589,-4.826463,0,0.003462533,0
1786463604.341492,-0.000266,-0.000233,-0.000317,0.014893,0.000977,-0.999756,0.998872,0.003932,-0.047328,-0.000027,0.554482,0.002130,-0.832193,-0.000004,0.452229,-5.425409,-0.024550,179.647600,-67.349700,-179.471893,9.058072,0.024459,-4.801920,0,0.003463882,0
1786463604.361763,0.000267,0.000300,-0.000184,0.014648,0.001221,-0.999023,0.998856,0.003961,-0.047655,-0.000028,0.555587,0.002136,-0.831456,-0.000002,0.455553,-5.462917,-0.024954,179.644118,-67.501878,-179.467850,9.068050,0.024470,-4.776784,0,0.003475514,0
1786463604.381511,0.000134,0.000167,-0.000317,0.015381,0.000977,-0.999023,0.998840,0.003988,-0.047983,-0.000030,0.556743,0.002116,-0.830682,-0.000002,0.458705,-5.500509,-0.025428,179.644294,-67.661182,-179.469738,9.078774,0.024339,-4.752749,0,0.003461915,0
1786463604.401475,-0.000133,0.000300,-0.000317,0.014648,0.000732,-0.999268,0.998824,0.004013,-0.048310,-0.000031,0.557842,0.002071,-0.829945,-0.000004,0.461643,-5.538030,-0.025897,179.648442,-67.812879,-179.477821,9.088454,0.023948,-4.727755,0,0.003460933,0
1786463604.421542,0.000267,0.000167,-0.000184,0.014893,0.001221,-0.998047,0.998808,0.004042,-0.048638,-0.000032,0.558958,0.002082,-0.829193,-0.000002,0.464962,-5.575615,-0.026308,179.643805,-67.967071,-179.472100,9.098528,0.023965,-4.702523,0,0.003464563,0
1786463604.441505,-0.000266,0.000034,-0.000317,0.014893,0.001465,-0.999023,0.998792,0.004068,-0.048966,-0.000034,0.560070,0.002120,-0.828443,-0.000005,0.468066,-5.613268,-0.026806,179.633598,-68.120802,-179.459103,9.108455,0.024420,-4.679064,0,0.003462871,0
1786463604.461526,-0.000266,0.000566,-0.000184,0.015381,0.001465,-0.998535,0.998776,0.004095,-0.049292,-0.000035,0.561222,0.002155,-0.827663,-0.000007,0.471148,-5.650618,-0.027225,179.623740,-68.280187,-179.446530,9.118824,0.024896,-4.654062,0,0.003464055,0
1786463604.481730,0.000134,0.000034,0.000216,0.015137,0.001953,-0.999023,0.998760,0.004125,-0.049620,-0.000034,0.562350,0.002240,-0.826897,-0.000004,0.474605,-5.688261,-0.027436,179.606282,-68.436358,-179.421833,9.128675,0.025744,-4.629306,0,0.003472768,0
1786463604.501470,-0.000133,-0.000233,-0.000184,0.015381,0.001709,-0.999268,0.998743,0.004153,-0.049949,-0.000035,0.563490,0.002296,-0.826120,-0.000005,0.477846,-5.726061,-0.027872,179.592461,-68.594375,-179.403495,9.138761,0.026527,-4.604738,0,0.003459567,0
1786463604.521467,0.000001,0.000433,0.000082,0.015137,0.001221,-0.998291,0.998727,0.004180,-0.050275,-0.000034,0.564616,0.002296,-0.825350,-0.000004,0.480995,-5.763495,-0.028138,179.589147,-68.750709,-179.400141,9.148474,0.026672,-4.578459,0,0.003460557,0
1786463604.541742,0.000267,-0.000233,-0.000051,0.015137,0.001465,-0.999512,0.998710,0.004209,-0.050605,-0.000034,0.565735,0.002325,-0.824584,-0.000001,0.484384,-5.801303,-0.028494,179.580797,-68.906166,-179.389261,9.158161,0.026950,-4.554868,0,0.003473129,0
1786463604.561629,-0.000133,0.000167,-0.000184,0.015137,0.001465,-0.998535,0.998693,0.004236,-0.050932,-0.000035,0.566856,0.002353,-0.823813,-0.000003,0.487553,-5.838881,-0.028927,179.571560,-69.061995,-179.377917,9.167803,0.027339,-4.528994,0,0.003466105,0
1786463604.581491,0.000533,0.000300,-0.000184,0.014648,0.001465,-0.998535,0.998676,0.004267,-0.051259,-0.000036,0.567940,0.002383,-0.823067,0.000000,0.491118,-5.876382,-0.029363,179.563146,-69.212711,-179.366817,9.176892,0.027675,-4.504061,0,0.003459707,0
1786463604.601553,-0.000133,0.000167,0.000216,0.014404,0.001221,-0.999512,0.998659,0.004294,-0.051587,-0.000035,0.569001,0.002379,-0.822333,0.000000,0.494207,-5.913967,-0.029565,179.560083,-69.360585,-179.364127,9.185829,0.027735,-4.480945,0,0.003463445,0
1786463604.621527,0.000001,-0.000233,-0.000184,0.015381,0.001709,-0.998779,0.998642,0.004322,-0.051916,-0.000036,0.570131,0.002433,-0.821550,-0.000000,0.497527,-5.951767,-0.030014,179.545634,-69.518008,-179.345357,9.195732,0.028292,-4.456603,0,0.003462502,0
1786463604.641555,0.000001,0.000433,-0.000184,0.014893,0.001953,-0.999023,0.998625,0.004352,-0.052242,-0.000037,0.571228,0.002511,-0.820788,-0.000001,0.500937,-5.989179,-0.030471,179.526454,-69.671015,-179.319813,9.204756,0.029208,-4.431482,0,0.003464083,0
1786463604.661806,-0.000266,0.000167,0.000082,0.015381,0.000488,-0.998291,0.998608,0.004375,-0.052570,-0.000037,0.572359,0.002425,-0.820000,-0.000002,0.503704,-6.026783,-0.030729,179.538138,-69.829036,-179.338788,9.214360,0.028659,-4.406236,0,0.003474813,0
1786463604.681661,0.000666,0.000300,-0.000317,0.015137,0.001465,-0.999023,0.998590,0.004407,-0.052897,-0.000038,0.573469,0.002457,-0.819224,0.000001,0.507342,-6.064284,-0.031251,179.528548,-69.984226,-179.326310,9.223489,0.028746,-4.381568,0,0.003465963,0
1786463604.701714,0.000400,0.000300,0.000216,0.015381,0.000732,-0.999023,0.998573,0.004435,-0.053224,-0.000037,0.574595,0.002403,-0.818434,0.000005,0.510563,-6.101807,-0.031444,179.535512,-70.141899,-179.337490,9.232862,0.028294,-4.356610,0,0.003467776,0
1786463604.721728,0.000267,-0.000233,-0.000051,0.014648,0.001465,-0.998535,0.998555,0.004464,-0.053553,-0.000037,0.575662,0.002433,-0.817684,0.000005,0.513972,-6.139613,-0.031821,179.525500,-70.291332,-179.324953,9.241299,0.028471,-4.330846,0,0.003467489,0
1786463604.741572,0.000134,-0.000100,-0.000583,0.015381,0.001221,-0.998779,0.998537,0.004492,-0.053882,-0.000040,0.576781,0.002440,-0.816895,0.000002,0.517245,-6.177348,-0.032497,179.518720,-70.448166,-179.317862,9.250700,0.028716,-4.306986,0,0.003459977,0
1786463604.761499,-0.000133,0.000034,0.000082,0.014648,0.001709,-0.998291,0.998519,0.004520,-0.054210,-0.000040,0.577845,0.002495,-0.816142,0.000002,0.520494,-6.214996,-0.032809,179.503129,-70.597533,-179.297911,9.258997,0.029279,-4.281179,0,0.003457897,0
1786463604.781481,-0.000133,0.000699,0.000216,0.015137,0.000732,-0.998779,0.998502,0.004545,-0.054535,-0.000039,0.578949,0.002441,-0.815360,0.000001,0.523423,-6.252288,-0.033008,179.509234,-70.752562,-179.308543,9.268056,0.028962,-4.257427,0,0.003458668,0
1786463604.801491,0.000400,0.000034,0.000216,0.014893,0.000977,-0.998779,0.998483,0.004574,-0.054863,-0.000037,0.580027,0.002419,-0.814593,0.000005,0.526737,-6.289956,-0.033223,179.509993,-70.904223,-179.310860,9.276553,0.028610,-4.232506,0,0.003460410,0
1786463604.821469,-0.000133,-0.000233,-0.000184,0.014648,0.001465,-0.998779,0.998465,0.004601,-0.055193,-0.000038,0.581084,0.002453,-0.813840,0.000002,0.529928,-6.327762,-0.033688,179.497668,-71.052925,-179.296007,9.284819,0.028954,-4.208029,0,0.003460385,0
1786463604.841464,0.000134,0.000034,-0.000184,0.015381,0.000732,-0.999268,0.998447,0.004628,-0.055521,-0.000039,0.582194,0.002408,-0.813046,0.000002,0.533033,-6.365434,-0.034127,179.501862,-71.209292,-179.303965,9.293866,0.028684,-4.184393,0,0.003461087,0
1786463604.861480,-0.000133,0.000034,0.000216,0.014893,0.001465,-0.999512,0.998428,0.004655,-0.055849,-0.000038,0.583267,0.002441,-0.812277,0.000002,0.536191,-6.403090,-0.034364,179.490013,-71.360486,-179.289436,9.302037,0.028906,-4.159306,0,0.003462501,0
1786463604.881484,-0.000399,-0.000233,-0.000184,0.015137,0.000977,-0.999756,0.998410,0.004680,-0.056179,-0.000039,0.584352,0.002423,-0.811496,-0.000002,0.539072,-6.440908,-0.034817,179.487642,-71.513753,-179.288901,9.310570,0.028943,-4.135077,0,0.003463057,0
1786463604.901477,-0.000266,0.000167,0.000482,0.015137,0.001709,-0.998535,0.998391,0.004707,-0.056506,-0.000037,0.585441,0.002482,-0.810711,-0.000001,0.542201,-6.478483,-0.034911,179.470229,-71.667492,-179.266614,9.318949,0.029451,-4.108905,0,0.003463030,0
1786463604.921475,0.000001,0.000167,-0.000184,0.015137,0.001465,-0.999023,0.998372,0.004735,-0.056834,-0.000038,0.586527,0.002519,-0.809926,-0.000002,0.545454,-6.516061,-0.035383,179.456710,-71.821047,-179.250141,9.327262,0.030028,-4.084410,0,0.003463228,0
1786463604.941503,0.000267,0.000167,0.000216,0.014648,0.001221,-0.999512,0.998354,0.004763,-0.057161,-0.000037,0.587576,0.002527,-0.809165,0.000001,0.548775,-6.553646,-0.035620,179.450704,-71.969486,-179.243295,9.335010,0.030185,-4.059925,0,0.003464597,0
1786463604.961483,0.000134,0.000167,-0.000317,0.014893,0.001221,-0.999023,0.998335,0.004791,-0.057488,-0.000038,0.588641,0.002539,-0.808391,0.000000,0.552049,-6.591229,-0.036165,179.442371,-72.120343,-179.234109,9.343151,0.030381,-4.035278,0,0.003463639,0
1786463604.981476,0.000134,-0.000100,-0.000317,0.014893,0.001465,-0.998535,0.998316,0.004820,-0.057817,-0.000040,0.589702,0.002578,-0.807617,-0.000000,0.555396,-6.628958,-0.036723,179.427913,-72.270825,-179.216559,9.351097,0.030828,-4.010265,0,0.003463443,0
1786463605.001536,-0.000133,-0.000233,0.000082,0.015381,0.000977,-0.999268,0.998296,0.004846,-0.058147,-0.000039,0.590795,0.002558,-0.806818,-0.000001,0.558412,-6.666778,-0.037035,179.426222,-72.425975,-179.216555,9.359456,0.030796,-3.986485,0,0.003466189,0
1786463605.021538,0.000267,0.000167,-0.000184,0.014648,0.001465,-0.999023,0.998277,0.004875,-0.058474,-0.000040,0.591837,0.002598,-0.806053,0.000000,0.561832,-6.704354,-0.037519,179.411810,-72.574009,-179.198850,9.366802,0.031145,-3.960853,0,0.003465754,0
1786463605.041490,-0.000399,0.000167,-0.000317,0.015137,0.001465,-0.998535,0.998258,0.004901,-0.058801,-0.000042,0.592912,0.002635,-0.805263,-0.000004,0.564870,-6.741931,-0.038081,179.395917,-72.726908,-179.180319,9.374912,0.031706,-3.936185,0,0.003463313,0
1786463605.061547,0.000267,0.000433,0.000216,0.014648,0.001221,-0.999023,0.998238,0.004930,-0.059128,-0.000041,0.593953,0.002643,-0.804495,-0.000000,0.568194,-6.779363,-0.038329,179.388893,-72.875041,-179.172339,9.382246,0.031875,-3.911629,0,0.003465935,0
1786463605.081553,0.000134,0.000167,0.000082,0.015381,0.001709,-0.998535,0.998219,0.004959,-0.059455,-0.000040,0.595042,0.002706,-0.803690,0.000001,0.571574,-6.816937,-0.038673,179.368216,-73.030189,-179.146488,9.390463,0.032495,-3.886959,0,0.003465713,0
1786463605.101617,0.000400,0.000034,0.000082,0.014893,0.000977,-0.999512,0.998199,0.004988,-0.059783,-0.000040,0.596093,0.002687,-0.802911,0.000004,0.574911,-6.854603,-0.038996,179.366863,-73.180077,-179.146438,9.397754,0.032509,-3.862555,0,0.003468057,0
1786463605.121519,-0.000133,-0.000100,-0.000051,0.014648,0.001221,-0.999268,0.998179,0.005014,-0.060112,-0.000040,0.597123,0.002696,-0.802145,0.000002,0.578029,-6.892339,-0.039407,179.357700,-73.327154,-179.136760,9.404961,0.032605,-3.837780,0,0.003462900,0
1786463605.141520,-0.000133,0.000167,-0.000317,0.014404,0.001221,-0.998779,0.998159,0.005041,-0.060439,-0.000042,0.598137,0.002708,-0.801390,-0.000001,0.581172,-6.929920,-0.039974,179.347333,-73.472028,-179.125679,9.411987,0.032839,-3.813124,0,0.003463252,0
1786463605.161478,0.000400,0.000167,-0.000184,0.015625,0.000977,-0.999023,0.998139,0.005070,-0.060767,-0.000042,0.599234,0.002695,-0.800569,0.000001,0.584514,-6.967509,-0.040454,179.343737,-73.629069,-179.123012,9.420294,0.032778,-3.789594,0,0.003461666,0
1786463605.181475,-0.000133,0.000167,0.000082,0.014893,0.000488,-0.999023,0.998119,0.005095,-0.061094,-0.000042,0.600279,0.002626,-0.799787,0.000000,0.587415,-7.005110,-0.040768,179.353449,-73.778660,-179.138460,9.427176,0.032150,-3.763805,0,0.003462151,0
1786463605.201596,-0.000399,-0.000100,0.000216,0.014893,0.001465,-0.999512,0.998099,0.005121,-0.061423,-0.000041,0.601319,0.002665,-0.799005,-0.000001,0.590425,-7.042842,-0.041042,179.336184,-73.927746,-179.118165,9.434348,0.032369,-3.739767,0,0.003467780,0
1786463605.221551,-0.000266,0.000034,0.000082,0.014404,0.001221,-1.000000,0.998078,0.005147,-0.061751,-0.000041,0.602324,0.002679,-0.798248,-0.000002,0.593463,-7.080501,-0.041387,179.325324,-74.071857,-179.106293,9.440966,0.032685,-3.715703,0,0.003464937,0
1786463605.241519,0.000134,-0.000100,-0.000051,0.015381,0.000977,-0.998291,0.998058,0.005174,-0.062080,-0.000041,0.603395,0.002670,-0.797438,-0.000001,0.596651,-7.118244,-0.041801,179.320353,-74.225777,-179.102019,9.448736,0.032679,-3.690297,0,0.003463381,0
1786463605.261756,0.000267,0.000433,0.000082,0.014893,0.001465,-0.999512,0.998037,0.005203,-0.062405,-0.000040,0.604435,0.002715,-0.796650,0.000001,0.600049,-7.155670,-0.042155,179.302133,-74.375210,-179.079974,9.455475,0.033068,-3.666064,0,0.003473697,0
1786463605.281527,0.000001,-0.000100,-0.000184,0.015625,0.000732,-0.999512,0.998017,0.005229,-0.062734,-0.000041,0.605518,0.002680,-0.795827,0.000000,0.603102,-7.193417,-0.042642,179.302795,-74.531133,-179.083648,9.463102,0.032948,-3.641526,0,0.003461536,0
1786463605.301516,-0.000133,0.000566,-0.000184,0.015137,0.001221,-0.998291,0.997996,0.005256,-0.063060,-0.000042,0.606572,0.002700,-0.795024,-0.000002,0.606221,-7.230771,-0.043144,179.288846,-74.682922,-179.068217,9.469804,0.033100,-3.614462,0,0.003461692,0
1786463605.321941,0.000533,0.000167,-0.000317,0.015381,0.000977,-0.999268,0.997975,0.005285,-0.063387,-0.000044,0.607639,0.002699,-0.794209,0.000001,0.609660,-7.268358,-0.043718,179.281762,-74.836774,-179.061120,9.476926,0.033173,-3.590451,0,0.003480452,0
1786463605.342386,-0.000133,0.000167,0.000216,0.015137,0.002197,-0.998779,0.997954,0.005314,-0.063714,-0.000043,0.608689,0.002824,-0.793404,0.000001,0.613013,-7.305921,-0.044030,179.239814,-74.988234,-179.008985,9.483606,0.034328,-3.564545,0,0.003495438,0
1786463605.361762,0.000001,-0.000233,-0.000184,0.015381,0.000488,-0.999756,0.997933,0.005340,-0.064044,-0.000043,0.609746,0.002762,-0.792592,-0.000000,0.616012,-7.343749,-0.044518,179.247325,-75.141029,-179.021670,9.490580,0.034234,-3.540536,0,0.003461045,0
1786463605.381516,0.000267,0.000034,0.000082,0.015381,0.001709,-0.999268,0.997912,0.005369,-0.064371,-0.000043,0.610803,0.002836,-0.791778,0.000002,0.619467,-7.381399,-0.044894,179.218786,-75.293755,-178.986954,9.497336,0.034727,-3.514728,0,0.003451325,0
1786463605.401516,0.000001,-0.000233,-0.000317,0.015381,0.001221,-0.998779,0.997890,0.005397,-0.064701,-0.000045,0.611856,0.002857,-0.790964,-0.000000,0.622672,-7.419210,-0.045489,179.202911,-75.446224,-178.969574,9.503994,0.035236,-3.488992,0,0.003454460,0
1786463605.421482,0.000134,0.000034,-0.000450,0.015137,0.001709,-0.998291,0.997869,0.005426,-0.065029,-0.000047,0.612893,0.002933,-0.790160,-0.000001,0.626098,-7.456856,-0.046178,179.171287,-75.596455,-178.931849,9.510357,0.036081,-3.463187,0,0.003455397,0
1786463605.441499,0.000134,-0.000233,0.000082,0.015137,0.001709,-0.998779,0.997847,0.005455,-0.065358,-0.000046,0.613926,0.003003,-0.789358,0.000000,0.629485,-7.494658,-0.046563,179.141842,-75.746229,-178.896580,9.516775,0.036981,-3.438804,0,0.003458258,0
1786463605.461484,0.000134,0.000433,-0.000184,0.015137,0.001221,-0.999023,0.997825,0.005483,-0.065684,-0.000047,0.614962,0.003021,-0.788551,0.000000,0.632765,-7.532088,-0.047084,179.126340,-75.896673,-178.879698,9.523154,0.037425,-3.414060,0,0.003459061,0
1786463605.481513,0.000267,0.000300,0.000216,0.015137,0.000732,-0.999268,0.997804,0.005510,-0.066011,-0.000046,0.615995,0.002983,-0.787744,0.000003,0.635966,-7.569607,-0.047360,179.127863,-76.046919,-178.884139,9.529457,0.037127,-3.389348,0,0.003461531,0
1786463605.501547,0.000267,0.000566,-0.000051,0.014404,0.001221,-0.999268,0.997782,0.005539,-0.066336,-0.000046,0.616979,0.003003,-0.786974,0.000004,0.639330,-7.606960,-0.047809,179.112118,-76.190019,-178.866737,9.534972,0.037223,-3.364344,0,0.003463596,0
1786463605.521492,-0.000665,0.000300,-0.000184,0.015381,0.001709,-0.998779,0.997760,0.005564,-0.066662,-0.000047,0.618025,0.003073,-0.786152,-0.000002,0.642276,-7.644455,-0.048353,179.077620,-76.342364,-178.827047,9.541814,0.038061,-3.340113,0,0.003461365,0
1786463605.541672,-0.000133,-0.000100,-0.000184,0.014648,0.000977,-0.998535,0.997738,0.005591,-0.066991,-0.000048,0.619018,0.003065,-0.785371,-0.000004,0.645355,-7.682194,-0.048879,179.068206,-76.487117,-178.818420,9.547256,0.038306,-3.314589,0,0.003469747,0
1786463605.561527,0.000134,0.000167,0.000082,0.015137,0.000977,-0.999023,0.997716,0.005618,-0.067318,-0.000048,0.620043,0.003058,-0.784562,-0.000002,0.648556,-7.719783,-0.049250,179.059365,-76.636713,-178.810051,9.553578,0.038232,-3.290933,0,0.003462163,0
1786463605.581830,-0.000266,-0.000233,-0.000317,0.014404,0.001709,-0.999268,0.997693,0.005645,-0.067647,-0.000050,0.621014,0.003133,-0.783793,-0.000005,0.651761,-7.757582,-0.049883,179.023175,-76.778514,-178.767974,9.558780,0.039004,-3.266339,0,0.003475571,0
1786463605.601529,0.000134,0.000300,0.000082,0.014893,0.001465,-0.998779,0.997671,0.005674,-0.067974,-0.000049,0.622020,0.003180,-0.782995,-0.000003,0.655092,-7.795084,-0.050275,178.997045,-76.925507,-178.737938,9.564874,0.039694,-3.242100,0,0.003459906,0
1786463605.621479,-0.000133,0.000433,0.000216,0.015381,0.001465,-0.999023,0.997649,0.005701,-0.068300,-0.000048,0.623057,0.003223,-0.782170,-0.000002,0.658250,-7.832511,-0.050589,178.970353,-77.077309,-178.707725,9.571093,0.040274,-3.217796,0,0.003458804,0
1786463605.641493,-0.000133,-0.000233,-0.000051,0.015137,0.001221,-0.999268,0.997626,0.005727,-0.068629,-0.000048,0.624071,0.003241,-0.781361,-0.000003,0.661374,-7.870323,-0.051057,178.950672,-77.225827,-178.686660,9.576666,0.040660,-3.192828,0,0.003460696,0
1786463605.661497,0.000267,0.000433,0.000082,0.014893,0.000732,-0.998535,0.997603,0.005755,-0.068955,-0.000048,0.625072,0.003207,-0.780561,-0.000000,0.664600,-7.907764,-0.051429,178.949011,-77.372778,-178.687551,9.582105,0.040428,-3.167167,0,0.003461721,0
1786463605.681485,0.000134,-0.000100,0.000082,0.014404,0.000977,-0.998535,0.997580,0.005782,-0.069284,-0.000047,0.626034,0.003202,-0.779789,0.000001,0.667821,-7.945504,-0.051817,178.937975,-77.514131,-178.676878,9.587126,0.040291,-3.142727,0,0.003461790,0
1786463605.701770,0.000400,0.000433,-0.000317,0.014893,0.001465,-0.998779,0.997557,0.005812,-0.069609,-0.000049,0.627033,0.003256,-0.778986,0.000002,0.671338,-7.982927,-0.052449,178.906017,-77.660880,-178.640502,9.592898,0.040820,-3.119242,0,0.003474499,0
1786463605.721504,0.000267,0.000167,-0.000051,0.014648,0.001465,-0.999268,0.997534,0.005842,-0.069936,-0.000049,0.628010,0.003306,-0.778198,0.000003,0.674765,-8.020504,-0.052933,178.875006,-77.804484,-178.605354,9.598043,0.041488,-3.095226,0,0.003460598,0
1786463605.741737,-0.000266,0.000167,-0.000184,0.014893,0.000977,-0.999512,0.997511,0.005867,-0.070264,-0.000050,0.629002,0.003301,-0.777397,-0.000000,0.677774,-8.058090,-0.053478,178.860226,-77.950597,-178.591307,9.603512,0.041711,-3.071425,0,0.003471408,0
1786463605.761532,0.000267,0.000034,0.000216,0.014893,0.001709,-0.998779,0.997488,0.005897,-0.070591,-0.000049,0.629990,0.003377,-0.776596,0.000003,0.681234,-8.095740,-0.053820,178.819307,-78.096237,-178.544004,9.608760,0.042393,-3.046255,0,0.003460853,0
1786463605.781476,-0.000266,-0.000233,-0.000317,0.014893,0.000732,-0.998779,0.997464,0.005922,-0.070921,-0.000050,0.630975,0.003346,-0.775796,-0.000001,0.684197,-8.133559,-0.054441,178.812204,-78.241589,-178.539733,9.613923,0.042499,-3.021887,0,0.003459268,0
1786463605.801500,0.000267,0.000300,-0.000450,0.014648,0.001465,-0.999512,0.997441,0.005951,-0.071247,-0.000053,0.631945,0.003402,-0.775006,-0.000002,0.687658,-8.171057,-0.055164,178.775504,-78.384812,-178.498526,9.618803,0.042982,-2.998160,0,0.003461504,0
1786463605.821513,0.000001,-0.000366,0.000082,0.015381,0.000488,-0.998779,0.997417,0.005977,-0.071577,-0.000052,0.632957,0.003345,-0.774179,-0.000001,0.690674,-8.208960,-0.055549,178.778842,-78.534669,-178.506487,9.624476,0.042680,-2.973520,0,0.003462667,0
1786463605.841511,0.000267,-0.000100,0.000216,0.015381,0.001465,-1.000244,0.997393,0.006006,-0.071905,-0.000051,0.633969,0.003398,-0.773351,0.000002,0.694067,-8.246692,-0.055891,178.742717,-78.684291,-178.465852,9.629620,0.042970,-2.949803,0,0.003462964,0
1786463605.861490,-0.000133,0.000566,0.000082,0.014648,0.001221,-0.998779,0.997370,0.006033,-0.072231,-0.000051,0.634936,0.003423,-0.772557,0.000001,0.697198,-8.284046,-0.056302,178.715145,-78.827610,-178.436348,9.633973,0.043445,-2.923076,0,0.003462328,0
1786463605.881481,0.000134,0.000167,-0.000317,0.014648,0.001465,-0.998779,0.997346,0.006061,-0.072558,-0.000052,0.635898,0.003480,-0.771765,0.000000,0.700575,-8.321621,-0.056957,178.674562,-78.970283,-178.391242,9.638742,0.044143,-2.899071,0,0.003462397,0
1786463605.901480,0.000400,0.000034,-0.000184,0.015381,0.000977,-0.999023,0.997322,0.006090,-0.072886,-0.000053,0.636906,0.003483,-0.770934,0.000002,0.703964,-8.359284,-0.057519,178.653893,-79.119921,-178.370220,9.644173,0.044410,-2.875346,0,0.003462760,0
1786463605.921505,-0.000133,-0.000499,0.000082,0.015137,0.001953,-0.999268,0.997297,0.006118,-0.073216,-0.000053,0.637891,0.003590,-0.770118,0.000001,0.707262,-8.397233,-0.057968,178.591551,-79.266203,-178.299319,9.648778,0.045441,-2.850530,0,0.003464173,0
1786463605.941498,-0.000532,0.000034,-0.000184,0.014648,0.001221,-0.999512,0.997273,0.006143,-0.073544,-0.000054,0.638846,0.003615,-0.769326,-0.000003,0.710192,-8.434890,-0.058545,178.558631,-79.408297,-178.264778,9.653005,0.046184,-2.826028,0,0.003463866,0
1786463605.961499,0.000267,0.000433,0.000082,0.014893,0.001465,-0.999023,0.997249,0.006172,-0.073869,-0.000053,0.639819,0.003669,-0.768517,-0.000001,0.713608,-8.472315,-0.058975,178.515870,-79.553124,-178.217380,9.657765,0.046796,-2.801536,0,0.003463947,0
1786463605.981478,0.000001,0.000167,-0.000317,0.014404,0.001465,-0.999268,0.997224,0.006200,-0.074196,-0.000055,0.640756,0.003725,-0.767736,-0.000002,0.716917,-8.509890,-0.059642,178.469951,-79.692688,-178.167049,9.661794,0.047597,-2.777425,0,0.003463096,0
1786463606.001485,0.000001,-0.000366,0.000082,0.015137,0.001465,-0.998779,0.997200,0.006228,-0.074526,-0.000054,0.641735,0.003778,-0.766917,-0.000001,0.720179,-8.547773,-0.060081,178.424247,-79.838740,-178.117025,9.666812,0.048317,-2.753506,0,0.003463650,0
1786463606.021601,-0.000266,-0.000366,-0.000184,0.014648,0.001221,-0.999756,0.997175,0.006254,-0.074856,-0.000056,0.642680,0.003805,-0.766125,-0.000004,0.723264,-8.585658,-0.060670,178.387358,-79.979888,-178.078193,9.670767,0.048857,-2.729845,0,0.003468689,0
1786463606.041643,0.000267,0.000433,-0.000051,0.014893,0.001709,-0.998535,0.997150,0.006284,-0.075181,-0.000056,0.643646,0.003888,-0.765313,-0.000002,0.726751,-8.623078,-0.061195,178.326915,-80.124259,-178.010859,9.675273,0.049745,-2.704655,0,0.003469369,0
1786463606.061507,0.000001,-0.000233,0.000216,0.015381,0.000977,-0.999268,0.997125,0.006311,-0.075511,-0.000055,0.644636,0.003886,-0.764480,-0.000000,0.729886,-8.660895,-0.061545,178.300817,-80.272460,-177.984867,9.680009,0.050060,-2.681128,0,0.003462247,0
1786463606.081537,-0.000266,-0.000499,-0.000184,0.015381,0.001465,-0.999023,0.997100,0.006337,-0.075841,-0.000056,0.645622,0.003940,-0.763647,-0.000003,0.733015,-8.698853,-0.062148,178.246523,-80.420128,-177.926374,9.684320,0.050658,-2.655920,0,0.003463977,0
1786463606.101531,0.000134,0.000167,0.000216,0.015137,0.001221,-0.999512,0.997075,0.006365,-0.076168,-0.000055,0.646595,0.003967,-0.762823,-0.000000,0.736287,-8.736437,-0.062509,178.206080,-80.566050,-177.883563,9.688338,0.051131,-2.631318,0,0.003463764,0
1786463606.121530,-0.000133,0.000034,-0.000184,0.015381,0.001221,-0.999023,0.997049,0.006392,-0.076496,-0.000055,0.647581,0.003997,-0.761986,-0.000002,0.739438,-8.774094,-0.063105,178.160424,-80.714104,-177.835685,9.692704,0.051597,-2.606191,0,0.003463794,0
1786463606.141635,-0.000399,0.000300,-0.000051,0.015137,0.001221,-0.999023,0.997024,0.006417,-0.076822,-0.000056,0.648552,0.004025,-0.761160,-0.000005,0.742429,-8.811600,-0.063623,178.113956,-80.860032,-177.787155,9.696591,0.052058,-2.581099,0,0.003468359,0
1786463606.161569,0.000134,0.000167,-0.000051,0.014648,0.000977,-0.999268,0.996999,0.006445,-0.077149,-0.000056,0.649488,0.004030,-0.760361,-0.000003,0.745680,-8.849185,-0.064138,178.080068,-81.000917,-177.752745,9.700098,0.052268,-2.556679,0,0.003464497,0
1786463606.181484,0.000400,0.000034,-0.000051,0.014893,0.001221,-0.999023,0.996973,0.006474,-0.077477,-0.000056,0.650437,0.004065,-0.759550,-0.000000,0.749135,-8.886843,-0.064664,178.031270,-81.143778,-177.700931,9.704141,0.052627,-2.532623,0,0.003460787,0
1786463606.201464,0.000533,0.000433,-0.000051,0.014648,0.000732,-0.999023,0.996948,0.006503,-0.077802,-0.000056,0.651371,0.004047,-0.758749,0.000003,0.752562,-8.924281,-0.065173,178.007447,-81.284758,-177.678335,9.707705,0.052611,-2.508352,0,0.003460743,0
1786463606.221549,0.000267,-0.000100,0.000082,0.015381,0.001221,-0.998779,0.996922,0.006532,-0.078131,-0.000056,0.652347,0.004082,-0.757910,0.000004,0.755922,-8.962016,-0.065625,177.954069,-81.432022,-177.622049,9.712108,0.052880,-2.484348,0,0.003465208,0
1786463606.241789,0.000533,0.000300,0.000082,0.015137,0.001221,-0.998779,0.996896,0.006562,-0.078457,-0.000055,0.653309,0.004118,-0.757080,0.000008,0.759441,-8.999522,-0.066078,177.899120,-81.577404,-177.563912,9.715664,0.053366,-2.459310,0,0.003475178,0
1786463606.261572,-0.000399,0.000034,0.000082,0.015137,0.000977,-0.998779,0.996870,0.006586,-0.078785,-0.000055,0.654266,0.004123,-0.756253,0.000004,0.762373,-9.037185,-0.066527,177.854832,-81.722220,-177.519510,9.719333,0.053648,-2.434708,0,0.003463181,0
1786463606.281558,-0.000133,0.000300,0.000349,0.015869,0.001465,-0.999023,0.996844,0.006613,-0.079111,-0.000053,0.655270,0.004183,-0.755384,0.000005,0.765528,-9.074689,-0.066835,177.780200,-81.874048,-177.440039,9.723674,0.054268,-2.410345,0,0.003462801,0
1786463606.301522,0.000134,0.000300,-0.000184,0.014648,0.000977,-0.998291,0.996818,0.006641,-0.079437,-0.000054,0.656194,0.004195,-0.754580,0.000004,0.768798,-9.112197,-0.067442,177.730930,-82.014209,-177.389857,9.726162,0.054717,-2.383832,0,0.003461576,0
1786463606.321567,0.000267,0.000167,-0.000184,0.014893,0.001221,-0.999023,0.996791,0.006670,-0.079764,-0.000055,0.657131,0.004237,-0.753765,0.000004,0.772196,-9.149777,-0.068060,177.663977,-82.156273,-177.319569,9.729765,0.055209,-2.360802,0,0.003464113,0
1786463606.341705,0.000267,-0.000233,0.000349,0.015137,0.001221,-0.999023,0.996765,0.006698,-0.080093,-0.000053,0.658079,0.004274,-0.752937,0.000007,0.775542,-9.187590,-0.068373,177.597932,-82.300195,-177.250268,9.733348,0.055714,-2.336744,0,0.003470005,0
1786463606.361746,0.000134,-0.000233,-0.000184,0.015137,0.001709,-0.998779,0.996738,0.006727,-0.080422,-0.000054,0.659025,0.004370,-0.752109,0.000005,0.778968,-9.225390,-0.069015,177.493311,-82.443786,-177.138035,9.736680,0.056829,-2.312041,0,0.003470290,0
1786463606.382169,0.000267,-0.000366,-0.000184,0.015137,0.001465,-0.998535,0.996711,0.006756,-0.080752,-0.000054,0.659970,0.004439,-0.751279,0.000005,0.782419,-9.263271,-0.069651,177.400489,-82.587449,-177.039636,9.739940,0.057914,-2.287377,0,0.003486881,0
1786463606.402004,-0.000399,0.000034,-0.000317,0.014160,0.001221,-0.999023,0.996685,0.006782,-0.081079,-0.000056,0.660853,0.004479,-0.750502,0.000000,0.785467,-9.300925,-0.070359,177.321523,-82.721883,-176.957827,9.742178,0.058693,-2.263330,0,0.003474168,0
1786463606.421533,0.000134,0.000034,0.000216,0.015137,0.000977,-0.998291,0.996658,0.006810,-0.081407,-0.000055,0.661794,0.004493,-0.749673,0.000002,0.788699,-9.338589,-0.070748,177.257291,-82.865404,-176.892393,9.746098,0.059009,-2.239714,0,0.003451610,0
1786463606.441508,-0.000133,0.000167,-0.000184,0.014893,0.001465,-0.998779,0.996631,0.006837,-0.081734,-0.000056,0.662718,0.004562,-0.748855,-0.000000,0.791927,-9.376164,-0.071388,177.153116,-83.006316,-176.782742,9.748939,0.059806,-2.215759,0,0.003453623,0
1786463606.461523,0.000267,-0.000233,-0.000184,0.015137,0.000732,-0.998535,0.996604,0.006865,-0.082062,-0.000057,0.663653,0.004555,-0.748026,0.000001,0.795224,-9.413981,-0.072007,177.095267,-83.149368,-176.725502,9.752140,0.060087,-2.191571,0,0.003456836,0
1786463606.482094,-0.000399,0.000167,0.000082,0.015381,0.001953,-0.999023,0.996576,0.006891,-0.082389,-0.000057,0.664607,0.004677,-0.747178,-0.000002,0.798370,-9.451550,-0.072512,176.946523,-83.294842,-176.567008,9.755346,0.061244,-2.167637,0,0.003482979,0
1786463606.501700,-0.000133,-0.000233,-0.000051,0.014893,0.000732,-0.999268,0.996549,0.006917,-0.082718,-0.000057,0.665523,0.004668,-0.746362,-0.000002,0.801431,-9.489368,-0.073058,176.882828,-83.435237,-176.504172,9.757788,0.061759,-2.143103,0,0.003461542,0
1786463606.521525,0.000134,-0.000233,0.000349,0.015137,0.000488,-0.999268,0.996521,0.006944,-0.083047,-0.000055,0.666452,0.004632,-0.745533,0.000001,0.804552,-9.527194,-0.073366,176.836540,-83.577849,-176.460594,9.760810,0.061405,-2.119193,0,0.003454702,0
1786463606.541757,-0.000133,-0.000366,0.000082,0.015381,0.001221,-0.999023,0.996494,0.006970,-0.083377,-0.000055,0.667395,0.004679,-0.744690,0.000000,0.807696,-9.565081,-0.073856,176.726003,-83.722312,-176.346301,9.763813,0.061760,-2.094702,0,0.003466928,0
1786463606.561575,-0.000399,0.000034,0.000082,0.015625,0.000977,-0.999023,0.996466,0.006995,-0.083704,-0.000054,0.668352,0.004699,-0.743830,-0.000002,0.810632,-9.602744,-0.074336,176.627043,-83.869374,-176.245928,9.766801,0.062232,-2.069962,0,0.003458432,0
1786463606.581540,0.000267,0.000433,-0.000583,0.015137,0.001221,-0.999023,0.996438,0.007024,-0.084030,-0.000057,0.669281,0.004756,-0.742995,-0.000003,0.814073,-9.640168,-0.075212,176.498573,-84.011908,-176.112899,9.769042,0.062968,-2.044789,0,0.003458357,0
1786463606.601825,-0.000133,-0.000100,0.000082,0.014404,0.001465,-0.999023,0.996411,0.007051,-0.084358,-0.000057,0.670159,0.004835,-0.742202,-0.000003,0.817287,-9.677897,-0.075718,176.354367,-84.146830,-175.962351,9.770875,0.063954,-2.020529,0,0.003471949,0
1786463606.621537,-0.000133,0.000034,-0.000184,0.014404,0.001465,-0.998535,0.996383,0.007078,-0.084685,-0.000058,0.671036,0.004916,-0.741408,-0.000004,0.820526,-9.715548,-0.076380,176.200039,-84.281561,-175.801589,9.773260,0.065115,-1.996923,0,0.003457738,0
1786463606.641526,0.000134,0.000034,0.000082,0.015625,0.001221,-0.998779,0.996355,0.007106,-0.085013,-0.000057,0.671986,0.004969,-0.740547,-0.000002,0.823821,-9.753207,-0.076878,176.054247,-84.427809,-175.651326,9.776807,0.065982,-1.974092,0,0.003458816,0
1786463606.661830,-0.000133,-0.000499,0.000082,0.015381,0.000977,-0.998779,0.996326,0.007132,-0.085343,-0.000057,0.672916,0.004995,-0.739702,-0.000002,0.826919,-9.791174,-0.077374,175.923257,-84.571329,-175.518254,9.779016,0.066510,-1.949170,0,0.003473072,0
1786463606.681582,0.000134,0.000167,-0.000317,0.014648,0.000977,-0.998779,0.996298,0.007160,-0.085670,-0.000058,0.673804,0.005027,-0.738893,-0.000003,0.830221,-9.828756,-0.078101,175.784562,-84.708286,-175.376991,9.780651,0.067016,-1.924489,0,0.003460284,0
1786463606.701510,-0.000133,-0.000366,-0.000184,0.014893,0.000732,-0.999268,0.996269,0.007186,-0.085999,-0.000059,0.674700,0.005032,-0.738075,-0.000004,0.833305,-9.866649,-0.078748,175.660467,-84.846847,-175.252677,9.783076,0.067275,-1.901634,0,0.003458144,0
1786463606.721505,0.000134,-0.000366,-0.000317,0.015137,0.000977,-0.999756,0.996241,0.007214,-0.086329,-0.000061,0.675608,0.005068,-0.737243,-0.000005,0.836602,-9.904537,-0.079483,175.500896,-84.987301,-175.090251,9.785480,0.067707,-1.878419,0,0.003459422,0
1786463606.741888,-0.000399,-0.000233,-0.000450,0.014404,0.001221,-0.998535,0.996212,0.007239,-0.086657,-0.000063,0.676474,0.005130,-0.736449,-0.000009,0.839669,-9.942342,-0.080307,175.309812,-85.121064,-174.894442,9.786880,0.068556,-1.853104,0,0.003476902,0
1786463606.761620,-0.000399,0.000433,-0.000051,0.014648,0.001465,-0.999268,0.996183,0.007265,-0.086983,-0.000064,0.677356,0.005218,-0.735637,-0.000010,0.842741,-9.979765,-0.080903,175.084869,-85.257211,-174.662495,9.789110,0.069704,-1.830736,0,0.003462323,0
1786463606.781541,-0.000266,0.000034,-0.000051,0.014893,0.001221,-0.999512,0.996155,0.007291,-0.087310,-0.000064,0.678247,0.005281,-0.734815,-0.000010,0.845836,-10.017422,-0.081495,174.870111,-85.395094,-174.442720,9.791303,0.070731,-1.807640,0,0.003459405,0
1786463606.801555,0.000267,0.000300,0.000216,0.015137,0.001221,-0.999023,0.996126,0.007319,-0.087636,-0.000063,0.679153,0.005345,-0.733977,-0.000006,0.849206,-10.054929,-0.081931,174.642128,-85.535471,-174.209180,9.793475,0.071596,-1.783399,0,0.003461124,0
1786463606.821513,-0.000133,0.000167,-0.000051,0.015381,0.000977,-0.999023,0.996097,0.007346,-0.087963,-0.000063,0.680071,0.005383,-0.733126,-0.000006,0.852321,-10.092514,-0.082517,174.418595,-85.677920,-173.982627,9.795617,0.072293,-1.759283,0,0.003460075,0
1786463606.841544,0.000134,-0.000233,0.000349,0.014648,0.000488,-0.999756,0.996067,0.007372,-0.088292,-0.000061,0.680941,0.005366,-0.732319,-0.000002,0.855464,-10.130338,-0.082860,174.252308,-85.813279,-173.817370,9.796748,0.072323,-1.735608,0,0.003462395,0
1786463606.861593,-0.000133,0.000167,0.000082,0.015137,0.001709,-0.999023,0.996038,0.007400,-0.088618,-0.000061,0.681841,0.005487,-0.731480,-0.000002,0.858718,-10.167911,-0.083399,173.912152,-85.952408,-173.467443,9.798961,0.073421,-1.711589,0,0.003464928,0
1786463606.881535,-0.000532,-0.000366,0.000216,0.015137,0.000977,-0.999268,0.996009,0.007424,-0.088948,-0.000060,0.682734,0.005524,-0.730646,-0.000004,0.861584,-10.205803,-0.083841,173.642124,-86.091301,-173.194564,9.800664,0.074377,-1.687873,0,0.003462227,0
1786463606.901602,0.000267,0.000433,0.000082,0.014893,0.001709,-0.998779,0.995979,0.007453,-0.089273,-0.000060,0.683618,0.005650,-0.729818,-0.000001,0.865070,-10.243224,-0.084383,173.255555,-86.227902,-172.797600,9.802080,0.075742,-1.663298,0,0.003465541,0
1786463606.921526,0.000001,0.000034,0.000082,0.015625,0.001709,-0.999268,0.995950,0.007481,-0.089600,-0.000059,0.684540,0.005774,-0.728953,-0.000000,0.868392,-10.280874,-0.084928,172.826485,-86.370375,-172.358447,9.804373,0.077487,-1.640175,0,0.003461955,0
1786463606.941518,-0.000266,0.000433,0.000349,0.015137,0.001953,-0.998535,0.995920,0.007508,-0.089925,-0.000058,0.685434,0.005922,-0.728111,0.000000,0.871591,-10.318293,-0.085327,172.339909,-86.508226,-171.859822,9.805465,0.079440,-1.614626,0,0.003462146,0
1786463606.961507,0.000267,0.000300,-0.000184,0.014893,0.001709,-0.999512,0.995890,0.007538,-0.090251,-0.000058,0.686309,0.006051,-0.727285,0.000001,0.875107,-10.355788,-0.086031,171.845222,-86.643314,-171.354623,9.806684,0.081383,-1.591602,0,0.003462158,0
1786463606.981559,-0.000266,-0.000233,-0.000317,0.013916,0.000488,-0.998535,0.995860,0.007563,-0.090580,-0.000060,0.687123,0.006045,-0.726516,-0.000003,0.878110,-10.393605,-0.086780,171.516205,-86.770160,-171.026406,9.807083,0.082030,-1.567165,0,0.003464822,0
1786463607.001507,0.000001,0.000300,-0.000184,0.014893,0.001709,-0.999268,0.995831,0.007591,-0.090906,-0.000061,0.687995,0.006177,-0.725689,-0.000004,0.881474,-10.431100,-0.087489,170.939035,-86.904502,-170.438642,9.809313,0.083286,-1.545871,0,0.003462440,0
1786463607.021556,-0.000399,-0.000233,0.000082,0.015137,0.001221,-0.999023,0.995800,0.007616,-0.091235,-0.000061,0.688876,0.006251,-0.724852,-0.000005,0.884485,-10.468910,-0.088032,170.388852,-87.040834,-169.882586,9.810821,0.084635,-1.522201,0,0.003464966,0
1786463607.041559,-0.000133,0.000034,-0.000051,0.015625,0.000977,-0.998779,0.995770,0.007642,-0.091562,-0.000061,0.689786,0.006302,-0.723986,-0.000005,0.887606,-10.506571,-0.088643,169.805497,-87.181865,-169.295108,9.812544,0.085542,-1.498098,0,0.003464869,0
1786463607.061559,0.000134,0.000034,0.000349,0.014893,0.001465,-0.999268,0.995740,0.007671,-0.091889,-0.000059,0.690651,0.006408,-0.723160,-0.000002,0.890944,-10.544227,-0.089042,169.105959,-87.314877,-168.586700,9.813030,0.086761,-1.473964,0,0.003464680,0
1786463607.081558,0.000267,-0.000233,0.000216,0.014893,0.001221,-0.998779,0.995709,0.007699,-0.092218,-0.000058,0.691512,0.006490,-0.722336,0.000002,0.894327,-10.582038,-0.089514,168.376052,-87.447447,-167.849930,9.814120,0.088032,-1.450113,0,0.003464492,0
1786463607.101519,-0.000532,-0.000366,-0.000051,0.014893,0.000977,-0.999512,0.995678,0.007723,-0.092547,-0.000059,0.692370,0.006543,-0.721513,-0.000002,0.897235,-10.619927,-0.090137,167.606658,-87.579517,-167.076518,9.815156,0.089020,-1.427518,0,0.003462727,0
1786463607.121514,-0.000266,-0.000366,0.000082,0.014648,0.001221,-0.999268,0.995648,0.007749,-0.092876,-0.000058,0.693211,0.006627,-0.720704,-0.000003,0.900332,-10.657813,-0.090694,166.710022,-87.708279,-166.173175,9.815893,0.090125,-1.403988,0,0.003462859,0
1786463607.141525,-0.000133,-0.000366,0.000482,0.014648,0.001221,-0.998535,0.995617,0.007776,-0.093205,-0.000056,0.694052,0.006710,-0.719894,-0.000001,0.903462,-10.695703,-0.091020,165.714722,-87.836450,-165.170945,9.816800,0.091304,-1.380378,0,0.003463642,0
1786463607.161523,-0.000665,-0.000233,0.000082,0.014893,0.001221,-0.999268,0.995586,0.007800,-0.093534,-0.000056,0.694905,0.006795,-0.719070,-0.000004,0.906327,-10.733513,-0.091579,164.561035,-87.965807,-164.010689,9.817898,0.092593,-1.358209,0,0.003463649,0
1786463607.181549,0.000001,0.000034,0.000216,0.015381,0.000732,-0.998779,0.995555,0.007826,-0.093861,-0.000055,0.695787,0.006831,-0.718216,-0.000002,0.909457,-10.771180,-0.092041,163.334283,-88.100050,-162.780907,9.819199,0.093389,-1.334422,0,0.003464894,0
1786463607.201535,0.000001,0.000034,-0.000184,0.015137,0.001221,-0.999023,0.995523,0.007853,-0.094188,-0.000056,0.696652,0.006926,-0.717376,-0.000003,0.912727,-10.808835,-0.092756,161.793940,-88.229374,-161.232919,9.819743,0.094533,-1.310599,0,0.003464076,0
1786463607.221506,-0.000266,0.000300,-0.000051,0.015137,0.001709,-0.998535,0.995492,0.007880,-0.094514,-0.000056,0.697518,0.007075,-0.716533,-0.000004,0.915923,-10.846331,-0.093411,159.867455,-88.355868,-159.294494,9.820454,0.096424,-1.286414,0,0.003462857,0
1786463607.241513,0.000267,-0.000366,0.000082,0.015137,0.000977,-0.999268,0.995461,0.007908,-0.094843,-0.000056,0.698376,0.007146,-0.715696,-0.000002,0.919273,-10.884222,-0.093971,157.863740,-88.481749,-157.284758,9.821096,0.097837,-1.263606,0,0.003463447,0
1786463607.261806,0.000267,-0.000100,0.000082,0.015381,0.001221,-0.999023,0.995429,0.007937,-0.095171,-0.000055,0.699249,0.007247,-0.714841,0.000001,0.922666,-10.921956,-0.094538,155.367606,-88.606824,-154.780286,9.821937,0.099143,-1.239805,0,0.003476119,0
1786463607.281509,0.000533,0.000034,0.000082,0.014648,0.001465,-0.999268,0.995398,0.007967,-0.095498,-0.000054,0.700078,0.007378,-0.714028,0.000004,0.926269,-10.959609,-0.095117,152.439307,-88.721397,-151.841072,9.821749,0.100857,-1.216069,0,0.003460476,0
1786463607.301555,-0.000133,0.000034,-0.000051,0.014893,0.001709,-0.998779,0.995366,0.007994,-0.095825,-0.000055,0.700919,0.007535,-0.713201,0.000003,0.929550,-10.997257,-0.095785,148.783805,-88.832528,-148.172989,9.822450,0.103002,-1.192832,0,0.003463331,0
1786463607.321578,0.000400,-0.000233,-0.000450,0.014160,0.001953,-0.999268,0.995334,0.008025,-0.096154,-0.000057,0.701714,0.007729,-0.712417,0.000002,0.933238,-11.035050,-0.096701,144.486333,-88.930362,-143.859907,9.822122,0.105630,-1.170252,0,0.003464500,0
1786463607.341609,0.000267,-0.000233,0.000216,0.015137,0.000732,-0.999268,0.995302,0.008053,-0.096482,-0.000056,0.702563,0.007782,-0.711579,0.000004,0.936536,-11.072868,-0.097185,139.531345,-89.035216,-138.900400,9.823427,0.107069,-1.148377,0,0.003465737,0
1786463607.361611,-0.000133,0.000034,-0.000317,0.015137,0.001465,-0.998779,0.995270,0.008080,-0.096809,-0.000057,0.703413,0.007921,-0.710738,0.000001,0.939801,-11.110518,-0.098006,133.086689,-89.125863,-132.444763,9.823745,0.108734,-1.124434,0,0.003465439,0
1786463607.381533,0.000267,0.000167,0.000216,0.014160,0.001465,-0.999512,0.995238,0.008109,-0.097136,-0.000056,0.704204,0.008061,-0.709952,0.000004,0.943250,-11.148095,-0.098519,125.826119,-89.198039,-125.172600,9.823019,0.110723,-1.101714,0,0.003461754,0
1786463607.401540,-0.000266,-0.000233,0.000349,0.015381,0.001221,-0.999268,0.995206,0.008135,-0.097464,-0.000055,0.705061,0.008172,-0.709100,0.000004,0.946317,-11.185908,-0.098949,116.641457,-89.261664,-115.979005,9.824420,0.112479,-1.079681,0,0.003462660,0
1786463607.421645,0.000400,0.000167,0.000082,0.015137,0.001221,-0.998535,0.995174,0.008164,-0.097791,-0.000054,0.705905,0.008291,-0.708258,0.000006,0.949799,-11.223489,-0.099533,106.184528,-89.302112,-105.512191,9.824323,0.114195,-1.055187,0,0.003467480,0
1786463607.441717,-0.000133,0.000300,-0.000583,0.014893,0.000977,-0.998291,0.995141,0.008190,-0.098116,-0.000057,0.706736,0.008389,-0.707428,0.000001,0.953012,-11.260990,-0.100499,95.058380,-89.318002,-94.378557,9.824164,0.115843,-1.031537,0,0.003469714,0
1786463607.461811,0.000533,0.000167,0.000082,0.014404,0.001221,-0.998779,0.995109,0.008220,-0.098443,-0.000056,0.707535,0.008516,-0.706627,0.000004,0.956584,-11.298570,-0.101090,84.255955,-89.306377,-83.565529,9.823710,0.117516,-1.009043,0,0.003472354,0
1786463607.481611,0.000267,0.000167,0.000082,0.015137,0.000732,-0.999268,0.995076,0.008248,-0.098769,-0.000055,0.708373,0.008589,-0.705787,0.000006,0.959905,-11.336158,-0.101664,73.581977,-89.273601,-72.885516,9.824418,0.118877,-0.987350,0,0.003461805,0
1786463607.501554,0.000400,-0.000366,-0.000317,0.015381,0.001709,-0.998291,0.995043,0.008278,-0.099098,-0.000057,0.709218,0.008778,-0.704935,0.000005,0.963524,-11.374033,-0.102513,64.330365,-89.208964,-63.618669,9.824592,0.121069,-0.963212,0,0.003459940,0
1786463607.521521,-0.000266,0.000034,-0.000184,0.015137,0.001221,-0.998535,0.995010,0.008304,-0.099425,-0.000058,0.710050,0.008910,-0.704094,0.000002,0.966662,-11.411687,-0.103266,56.594998,-89.131679,-55.872844,9.824201,0.123324,-0.939860,0,0.003459515,0
1786463607.541525,-0.000133,-0.000499,-0.000184,0.014404,0.001709,-0.999023,0.994977,0.008332,-0.099755,-0.000059,0.710836,0.009102,-0.703299,-0.000000,0.969978,-11.449638,-0.104046,50.746138,-89.042439,-50.008612,9.823278,0.125851,-0.917273,0,0.003460822,0
1786463607.561576,0.000400,0.000300,0.000082,0.015137,0.001221,-0.998779,0.994944,0.008361,-0.100080,-0.000058,0.711666,0.009244,-0.702457,0.000003,0.973468,-11.487142,-0.104646,45.476902,-88.942890,-44.727642,9.823766,0.128154,-0.894985,0,0.003463816,0
1786463607.581512,0.000267,0.000167,-0.000317,0.015381,0.001953,-0.998535,0.994911,0.008391,-0.100407,-0.000060,0.712506,0.009472,-0.701602,0.000002,0.977057,-11.524708,-0.105507,41.360136,-88.829735,-40.592409,9.823710,0.131052,-0.871597,0,0.003461171,0
1786463607.601518,0.000134,0.000034,-0.000051,0.015625,0.001221,-0.999756,0.994878,0.008419,-0.100734,-0.000060,0.713356,0.009620,-0.700736,0.000002,0.980407,-11.562363,-0.106191,37.702458,-88.714291,-36.922741,9.823579,0.133624,-0.849369,0,0.003462129,0
1786463607.621502,-0.000133,-0.000632,-0.000450,0.014893,0.000977,-0.998779,0.994844,0.008445,-0.101064,-0.000062,0.714159,0.009747,-0.699915,-0.000002,0.983621,-11.600399,-0.107110,34.783004,-88.601395,-33.993327,9.822424,0.135679,-0.824747,0,0.003461963,0
1786463607.641505,-0.000266,-0.000233,-0.000450,0.015381,0.001465,-0.999023,0.994810,0.008472,-0.101392,-0.000065,0.714990,0.009931,-0.699064,-0.000006,0.986838,-11.638199,-0.108043,32.364210,-88.478966,-31.559932,9.822458,0.138146,-0.802411,0,0.003462616,0
1786463607.661546,0.000001,0.000433,0.000082,0.015381,0.001221,-0.998291,0.994777,0.008499,-0.101717,-0.000064,0.715824,0.010090,-0.698208,-0.000004,0.990101,-11.675627,-0.108652,30.222783,-88.354856,-29.405485,9.821923,0.140594,-0.778259,0,0.003464707,0
1786463607.681520,-0.000266,0.000566,-0.000184,0.014648,0.001465,-0.998779,0.994744,0.008525,-0.102041,-0.000065,0.716615,0.010281,-0.697393,-0.000006,0.993297,-11.712972,-0.109428,28.571158,-88.233356,-27.738509,9.820602,0.143266,-0.755312,0,0.003463432,0
1786463607.701516,0.000134,0.000566,0.000216,0.014893,0.001221,-0.999268,0.994710,0.008553,-0.102366,-0.000064,0.717418,0.010449,-0.696565,-0.000003,0.996629,-11.750324,-0.109964,27.043933,-88.109890,-26.197443,9.820227,0.145817,-0.733555,0,0.003463448,0
1786463607.721516,0.000001,0.000034,0.000216,0.014893,0.001221,-0.998291,0.994676,0.008580,-0.102693,-0.000063,0.718215,0.010619,-0.695740,-0.000001,0.999887,-11.787981,-0.110507,25.723213,-87.985690,-24.862733,9.819556,0.148293,-0.710103,0,0.003463600,0
1786463607.741518,-0.000133,-0.000233,0.000082,0.014893,0.001709,-0.998535,0.994642,0.008608,-0.103021,-0.000063,0.719008,0.010848,-0.694917,-0.000001,1.003171,-11.825783,-0.111151,24.685371,-87.859000,-23.806292,9.818832,0.151349,-0.687938,0,0.003463839,0
1786463607.761728,0.000533,0.000300,-0.000450,0.015381,0.001221,-0.999512,0.994608,0.008638,-0.103346,-0.000065,0.719829,0.011036,-0.694064,-0.000001,1.006808,-11.863281,-0.112084,23.636264,-87.728638,-22.741883,9.818529,0.154372,-0.666456,0,0.003472822,0
1786463607.781562,0.000400,-0.000100,-0.000184,0.014648,0.001221,-0.998779,0.994574,0.008667,-0.103674,-0.000066,0.720605,0.011227,-0.693255,0.000001,1.010350,-11.901010,-0.112870,22.771240,-87.604293,-21.861318,9.816941,0.157138,-0.642623,0,0.003463591,0
1786463607.801528,-0.000133,-0.000366,0.000082,0.015381,0.001221,-0.999268,0.994539,0.008694,-0.104003,-0.000065,0.721416,0.011415,-0.692408,0.000000,1.013547,-11.938895,-0.113504,21.942965,-87.473878,-21.017763,9.816810,0.159921,-0.621235,0,0.003462259,0
1786463607.821510,0.000134,0.000300,-0.000317,0.014893,0.001221,-0.998047,0.994505,0.008722,-0.104328,-0.000067,0.722204,0.011615,-0.691583,-0.000001,1.016950,-11.976394,-0.114368,21.244106,-87.346090,-20.302818,9.815356,0.162855,-0.596937,0,0.003461967,0
1786463607.841514,0.000267,0.000167,0.000482,0.014648,0.001465,-0.998779,0.994470,0.008751,-0.104654,-0.000064,0.722974,0.011841,-0.690773,0.000004,1.020380,-12.013974,-0.114777,20.663856,-87.219826,-19.703810,9.814127,0.165960,-0.575383,0,0.003462679,0
1786463607.861514,0.000267,0.000034,-0.000717,0.015137,0.001465,-0.999023,0.994435,0.008780,-0.104981,-0.000068,0.723768,0.012081,-0.689938,0.000000,1.023951,-12.051618,-0.115891,20.141877,-87.088957,-19.162595,9.813588,0.169519,-0.553803,0,0.003463029,0
1786463607.881606,0.000533,0.000699,0.000082,0.015381,0.000732,-0.998535,0.994401,0.008809,-0.105305,-0.000067,0.724578,0.012242,-0.689084,0.000004,1.027448,-12.088900,-0.116505,19.519580,-86.957505,-18.526988,9.812716,0.172276,-0.530663,0,0.003467212,0
1786463607.901544,0.000134,0.000300,-0.000051,0.014404,0.001709,-0.998779,0.994366,0.008838,-0.105630,-0.000067,0.725329,0.012515,-0.688289,0.000004,1.030916,-12.126394,-0.117242,19.170890,-86.831678,-18.156105,9.810573,0.175695,-0.507965,0,0.003463801,0
1786463607.921546,0.000134,0.000034,-0.000051,0.014648,0.000732,-0.999512,0.994331,0.008865,-0.105957,-0.000067,0.726089,0.012686,-0.687483,0.000004,1.034216,-12.164054,-0.117948,18.699365,-86.706907,-17.670735,9.809653,0.178793,-0.487380,0,0.003463927,0
1786463607.941799,-0.000133,0.000433,0.000082,0.015137,0.000977,-0.998779,0.994296,0.008891,-0.106282,-0.000067,0.726878,0.012886,-0.686646,0.000003,1.037381,-12.201484,-0.118582,18.278716,-86.576530,-17.233867,9.808934,0.181626,-0.464917,0,0.003474811,0
1786463607.962033,0.000134,0.000566,0.000216,0.014893,0.001953,-0.998779,0.994261,0.008920,-0.106606,-0.000066,0.727651,0.013203,-0.685820,0.000005,1.040853,-12.238825,-0.119174,18.046771,-86.445257,-16.976051,9.807381,0.185644,-0.442419,0,0.003482130,0
1786463607.981728,0.000267,0.000034,-0.000317,0.015137,0.000977,-0.999268,0.994226,0.008949,-0.106933,-0.000067,0.728430,0.013422,-0.684989,0.000004,1.044300,-12.276480,-0.120050,17.709466,-86.315311,-16.621043,9.806261,0.189470,-0.420944,0,0.003464676,0
1786463608.001560,0.000134,0.000433,0.000082,0.015137,0.001709,-0.999268,0.994191,0.008977,-0.107257,-0.000067,0.729208,0.013725,-0.684155,0.000004,1.047745,-12.313899,-0.120717,17.494711,-86.183201,-16.381599,9.804853,0.193470,-0.398614,0,0.003457384,0
1786463608.021521,0.000267,-0.000100,-0.000051,0.014648,0.000977,-0.999023,0.994155,0.009006,-0.107585,-0.000067,0.729954,0.013957,-0.683354,0.000005,1.051170,-12.351633,-0.121445,17.233278,-86.057687,-16.101314,9.802891,0.197298,-0.376233,0,0.003457390,0
1786463608.041569,0.000267,-0.000100,0.000082,0.015137,0.000977,-0.998779,0.994119,0.009034,-0.107912,-0.000066,0.730724,0.014193,-0.682525,0.000006,1.054572,-12.389367,-0.122097,16.977252,-85.927992,-15.825943,9.801926,0.200781,-0.354621,0,0.003461070,0
1786463608.061522,0.000267,0.000300,-0.000317,0.015137,0.001709,-0.999268,0.994084,0.009064,-0.108238,-0.000068,0.731493,0.014522,-0.681694,0.000005,1.058148,-12.426859,-0.123006,16.841053,-85.795966,-15.663161,9.800367,0.205179,-0.332958,0,0.003459818,0
1786463608.081506,0.000001,0.000034,-0.000051,0.014648,0.000732,-0.999023,0.994048,0.009090,-0.108564,-0.000068,0.732233,0.014747,-0.680895,0.000004,1.061383,-12.464519,-0.123732,16.620713,-85.670960,-15.424616,9.798252,0.209094,-0.310704,0,0.003460193,0
1786463608.101754,-0.000133,0.000566,-0.000184,0.015625,0.001709,-0.999268,0.994012,0.009118,-0.108888,-0.000069,0.733025,0.015088,-0.680034,0.000001,1.064708,-12.501859,-0.124564,16.503331,-85.534493,-15.279736,9.797628,0.213552,-0.289594,0,0.003471708,0
1786463608.121534,0.000267,0.000433,-0.000317,0.015381,0.001953,-0.999512,0.993976,0.009147,-0.109213,-0.000070,0.733799,0.015469,-0.679191,0.000001,1.068323,-12.539271,-0.125487,16.442227,-85.399924,-15.187735,9.795594,0.218991,-0.267099,0,0.003460472,0
1786463608.141568,0.000400,0.000167,0.000082,0.014893,0.000488,-0.999023,0.993940,0.009176,-0.109539,-0.000070,0.734544,0.015694,-0.678380,0.000003,1.071731,-12.576859,-0.126130,16.245333,-85.273523,-14.972275,9.793290,0.223171,-0.244402,0,0.003462817,0
1786463608.161512,-0.000133,0.000300,-0.000051,0.014648,0.001221,-0.998535,0.993904,0.009202,-0.109864,-0.000070,0.735274,0.016007,-0.677581,0.000002,1.074976,-12.614359,-0.126880,16.154027,-85.147230,-14.855668,9.791284,0.227361,-0.222416,0,0.003460750,0
1786463608.181512,-0.000133,0.000034,0.000216,0.014893,0.001221,-0.998779,0.993868,0.009229,-0.110191,-0.000069,0.736012,0.016326,-0.676772,0.000002,1.078185,-12.652015,-0.127477,16.068197,-85.019365,-14.743831,9.789728,0.232067,-0.201655,0,0.003461554,0
1786463608.201668,0.000267,0.000300,0.000082,0.015381,0.001465,-0.999023,0.993831,0.009258,-0.110516,-0.000068,0.736774,0.016686,-0.675933,0.000004,1.081674,-12.689514,-0.128160,16.009777,-84.886474,-14.656047,9.788335,0.237186,-0.180544,0,0.003468823,0
1786463608.221736,0.000267,-0.000366,-0.000317,0.015381,0.001221,-0.999268,0.993794,0.009287,-0.110845,-0.000070,0.737529,0.017031,-0.675101,0.000003,1.085177,-12.727394,-0.129078,15.948099,-84.754916,-14.566375,9.786342,0.242437,-0.158893,0,0.003470587,0
1786463608.241565,0.000267,0.000300,0.000349,0.014893,0.001221,-0.998779,0.993758,0.009315,-0.111170,-0.000068,0.738259,0.017382,-0.674293,0.000006,1.088600,-12.764898,-0.129602,15.902594,-84.627148,-14.492064,9.783813,0.247566,-0.136446,0,0.003461665,0
1786463608.261612,-0.000399,0.000034,-0.000184,0.014893,0.000488,-0.998779,0.993721,0.009340,-0.111497,-0.000069,0.738986,0.017661,-0.673490,0.000002,1.091594,-12.802559,-0.130417,15.805900,-84.501327,-14.373021,9.781790,0.252209,-0.115351,0,0.003464297,0
1786463608.281753,-0.000133,0.000433,0.000216,0.015137,0.001465,-0.999268,0.993684,0.009366,-0.111821,-0.000068,0.739723,0.018058,-0.672669,0.000002,1.094843,-12.839983,-0.131030,15.803224,-84.370894,-14.338031,9.779988,0.257462,-0.094703,0,0.003470273,0
1786463608.301610,0.000533,0.000300,-0.000450,0.014893,0.001709,-0.999512,0.993647,0.009397,-0.112147,-0.000070,0.740442,0.018503,-0.671865,0.000002,1.098605,-12.877472,-0.132047,15.848766,-84.242186,-14.347368,9.777578,0.263859,-0.073579,0,0.003462638,0
1786463608.321579,0.000400,-0.000100,-0.000184,0.014893,0.000977,-0.999023,0.993610,0.009426,-0.112474,-0.000071,0.741157,0.018876,-0.671067,0.000003,1.102140,-12.915203,-0.132889,15.836574,-84.115847,-14.304772,9.775401,0.269798,-0.052281,0,0.003461661,0
1786463608.341557,0.000533,-0.000100,-0.000051,0.014404,0.001221,-0.998535,0.993573,0.009456,-0.112801,-0.000071,0.741842,0.019288,-0.670297,0.000005,1.105782,-12.952932,-0.133665,15.866978,-83.993162,-14.301448,9.772719,0.275690,-0.031034,0,0.003461332,0
1786463608.361541,0.000533,0.000167,-0.000051,0.015137,0.001709,-0.999756,0.993535,0.009487,-0.113127,-0.000071,0.742562,0.019766,-0.669486,0.000007,1.109493,-12.990501,-0.134456,15.932478,-83.863192,-14.327947,9.771270,0.282404,-0.012252,0,0.003461339,0
1786463608.381547,0.000267,0.000167,0.000082,0.014648,0.001953,-0.998779,0.993498,0.009517,-0.113453,-0.000070,0.743253,0.020282,-0.668703,0.000008,1.113082,-13.028068,-0.135182,16.037313,-83.736815,-14.390686,9.768429,0.289820,0.009683,0,0.003462300,0
1786463608.401583,0.000134,-0.000233,0.000082,0.014160,0.001221,-0.998291,0.993460,0.009545,-0.113780,-0.000070,0.743914,0.020731,-0.667954,0.000008,1.116487,-13.065874,-0.135890,16.101518,-83.616819,-14.418355,9.765612,0.296872,0.030240,0,0.003464244,0
1786463608.421515,-0.000266,0.000167,0.000216,0.015381,0.001221,-0.998779,0.993422,0.009571,-0.114106,-0.000069,0.744635,0.021188,-0.667135,0.000007,1.119629,-13.103453,-0.136513,16.145996,-83.486488,-14.425785,9.764563,0.303654,0.049119,0,0.003461320,0
1786463608.441552,0.000134,-0.000233,-0.000184,0.014893,0.001709,-0.998779,0.993384,0.009599,-0.114434,-0.000070,0.745324,0.021720,-0.666349,0.000005,1.123138,-13.141250,-0.137398,16.255782,-83.359527,-14.492356,9.761574,0.311208,0.070103,0,0.003463596,0
1786463608.461535,0.000134,0.000167,-0.000184,0.015137,0.000977,-0.999512,0.993347,0.009627,-0.114760,-0.000070,0.746024,0.022186,-0.665549,0.000004,1.126529,-13.178828,-0.138253,16.311021,-83.232166,-14.509758,9.759320,0.318568,0.089585,0,0.003463004,0
1786463608.481550,-0.000399,-0.000233,-0.000051,0.014404,0.001465,-0.999023,0.993308,0.009653,-0.115088,-0.000071,0.746680,0.022719,-0.664796,0.000001,1.129686,-13.216629,-0.139057,16.428389,-83.110313,-14.584033,9.756051,0.326151,0.110477,0,0.003463875,0
1786463608.501613,0.000134,-0.000100,-0.000051,0.015381,0.000732,-0.998291,0.993270,0.009680,-0.115415,-0.000071,0.747383,0.023188,-0.663989,0.000001,1.133019,-13.254363,-0.139832,16.479280,-82.982045,-14.596700,9.754544,0.333561,0.130434,0,0.003466624,0
1786463608.521522,-0.000399,-0.000233,0.000216,0.015137,0.000977,-0.998779,0.993232,0.009705,-0.115742,-0.000070,0.748067,0.023694,-0.663200,0.000000,1.136055,-13.292174,-0.140464,16.561335,-82.855763,-14.637578,9.751646,0.340928,0.150533,0,0.003462147,0
1786463608.541767,-0.000399,0.000167,-0.000184,0.015869,0.000977,-0.998779,0.993194,0.009730,-0.116068,-0.000071,0.748787,0.024220,-0.662368,-0.000003,1.139134,-13.329752,-0.141326,16.641598,-82.722880,-14.675292,9.749701,0.348767,0.170689,0,0.003473053,0
1786463608.561585,-0.000399,0.000034,0.000216,0.014893,0.001221,-0.999756,0.993155,0.009756,-0.116395,-0.000070,0.749450,0.024789,-0.661597,-0.000004,1.142211,-13.367407,-0.141968,16.766158,-82.598263,-14.753505,9.745875,0.357036,0.190824,0,0.003463113,0
1786463608.581592,0.000267,0.000034,0.000216,0.015137,0.001465,-0.999268,0.993117,0.009784,-0.116721,-0.000069,0.750119,0.025408,-0.660814,-0.000000,1.145705,-13.405059,-0.142621,16.913631,-82.471182,-14.850286,9.743393,0.365987,0.210794,0,0.003463620,0
1786463608.601565,0.000400,0.000167,-0.000051,0.014893,0.001221,-0.999268,0.993078,0.009814,-0.117047,-0.000069,0.750772,0.026022,-0.660049,0.000002,1.149277,-13.442635,-0.143424,17.060394,-82.346750,-14.946864,9.740317,0.375188,0.230517,0,0.003462606,0
1786463608.621526,0.000134,-0.000233,-0.000317,0.014648,0.000732,-0.999512,0.993039,0.009841,-0.117374,-0.000071,0.751405,0.026602,-0.659304,0.000000,1.152663,-13.480442,-0.144374,17.190751,-82.226195,-15.030134,9.737266,0.384089,0.249424,0,0.003461292,0
1786463608.641715,0.000400,-0.000499,-0.000184,0.015625,0.001953,-0.998779,0.993000,0.009872,-0.117703,-0.000071,0.752078,0.027337,-0.658507,0.000001,1.156363,-13.518388,-0.145292,17.395379,-82.094869,-15.174808,9.735480,0.394178,0.268767,0,0.003470060,0
1786463608.661566,-0.000266,-0.000366,0.000216,0.014893,0.001221,-0.998779,0.992960,0.009898,-0.118032,-0.000070,0.752710,0.028006,-0.657756,0.000001,1.159523,-13.556272,-0.145951,17.570261,-81.971819,-15.295184,9.731681,0.404535,0.288647,0,0.003462221,0
1786463608.681531,-0.000133,0.000433,0.000349,0.014648,0.001465,-0.999512,0.992922,0.009924,-0.118356,-0.000069,0.753327,0.028725,-0.657018,0.000002,1.162781,-13.593696,-0.146535,17.773123,-81.849685,-15.439365,9.728497,0.414983,0.306722,0,0.003461214,0
1786463608.701579,0.000134,0.000167,0.000082,0.015869,0.000732,-0.999023,0.992882,0.009952,-0.118682,-0.000068,0.753999,0.029385,-0.656219,0.000003,1.166101,-13.631280,-0.147250,17.918793,-81.719867,-15.531108,9.726780,0.425250,0.325400,0,0.003463972,0
1786463608.721548,0.000400,-0.000499,-0.000317,0.014893,0.000977,-0.999512,0.992843,0.009981,-0.119011,-0.000070,0.754609,0.030103,-0.655484,0.000003,1.169682,-13.669236,-0.148224,18.114165,-81.598335,-15.668008,9.722642,0.435713,0.344628,0,0.003462676,0
1786463608.741569,-0.000133,0.000167,0.000082,0.014893,0.001221,-0.998535,0.992803,0.010007,-0.119336,-0.000069,0.755218,0.030865,-0.654747,0.000002,1.172940,-13.706813,-0.148965,18.330138,-81.475727,-15.821882,9.719609,0.446848,0.363816,0,0.003463938,0
1786463608.761597,0.000267,0.000167,0.000216,0.015137,0.001953,-0.999512,0.992764,0.010037,-0.119662,-0.000068,0.755828,0.031736,-0.654001,0.000005,1.176518,-13.744382,-0.149655,18.597584,-81.349629,-16.018148,9.716765,0.459228,0.380857,0,0.003465180,0
1786463608.781572,0.000533,0.000034,-0.000317,0.014404,0.001221,-0.999023,0.992724,0.010067,-0.119988,-0.000069,0.756394,0.032559,-0.653305,0.000005,1.180222,-13.782030,-0.150640,18.848809,-81.231706,-16.202192,9.712807,0.471853,0.399401,0,0.003463813,0
1786463608.801790,0.000267,0.000566,-0.000317,0.015381,0.001221,-0.998779,0.992685,0.010096,-0.120312,-0.000071,0.757004,0.033406,-0.652555,0.000004,1.183762,-13.819373,-0.151618,19.091796,-81.105473,-16.376199,9.710711,0.484421,0.416562,0,0.003473185,0
1786463608.821603,0.000001,0.000300,0.000216,0.014648,0.001221,-0.998779,0.992645,0.010123,-0.120637,-0.000070,0.757568,0.034277,-0.651856,0.000005,1.187086,-13.856875,-0.152290,19.356144,-80.986147,-16.569477,9.706673,0.497293,0.434632,0,0.003463004,0
1786463608.841567,-0.000133,0.000167,0.000082,0.014893,0.000977,-0.998535,0.992605,0.010149,-0.120962,-0.000069,0.758134,0.035148,-0.651151,0.000004,1.190314,-13.894454,-0.153034,19.614212,-80.865991,-16.756569,9.703740,0.510367,0.451589,0,0.003461720,0
1786463608.861695,-0.000133,0.000167,0.000082,0.015381,0.001465,-0.999023,0.992565,0.010176,-0.121288,-0.000069,0.758712,0.036102,-0.650425,0.000003,1.193610,-13.932028,-0.153797,19.903970,-80.740875,-16.968549,9.700984,0.524201,0.467928,0,0.003467780,0
1786463608.881556,0.000267,-0.000100,-0.000583,0.015137,0.001465,-0.999023,0.992525,0.010206,-0.121615,-0.000072,0.759266,0.037095,-0.649722,0.000000,1.197235,-13.969745,-0.154960,20.215923,-80.618251,-17.199650,9.697317,0.538952,0.485093,0,0.003460924,0
1786463608.901585,-0.000266,-0.000366,-0.000184,0.015137,0.001465,-0.998535,0.992484,0.010232,-0.121943,-0.000073,0.759808,0.038116,-0.649030,-0.000002,1.200500,-14.007621,-0.155892,20.537900,-80.496402,-17.438584,9.693929,0.554091,0.502029,0,0.003462959,0
1786463608.921585,-0.000399,0.000300,-0.000317,0.015381,0.001709,-0.999512,0.992444,0.010258,-0.122267,-0.000075,0.760352,0.039197,-0.648327,-0.000006,1.203740,-14.045110,-0.156906,20.881342,-80.371674,-17.694089,9.690728,0.570001,0.517326,0,0.003463240,0
1786463608.941559,0.000134,0.000300,0.000216,0.014893,0.001221,-0.999268,0.992404,0.010286,-0.122592,-0.000073,0.760862,0.040261,-0.647663,-0.000003,1.207143,-14.082611,-0.157591,21.217482,-80.252960,-17.943134,9.686697,0.586014,0.533806,0,0.003462332,0
1786463608.961548,0.000400,0.000034,0.000082,0.014404,0.001221,-0.999268,0.992363,0.010315,-0.122918,-0.000073,0.761334,0.041365,-0.647039,0.000000,1.210726,-14.120263,-0.158362,21.577993,-80.138805,-18.213334,9.682795,0.602283,0.548972,0,0.003462291,0
1786463608.981553,-0.000266,0.000433,-0.000051,0.015625,0.001465,-0.999023,0.992323,0.010342,-0.123243,-0.000073,0.761854,0.042523,-0.646352,-0.000002,1.213968,-14.157682,-0.159214,21.941914,-80.014252,-18.482798,9.680673,0.619345,0.563399,0,0.003462971,0
1786463609.001562,0.000400,-0.000366,-0.000051,0.014648,0.001221,-0.999268,0.992282,0.010371,-0.123571,-0.000073,0.762307,0.043702,-0.645738,0.000000,1.217571,-14.195562,-0.160073,22.328462,-79.899545,-18.772983,9.676047,0.636882,0.578521,0,0.003463624,0
1786463609.021588,0.000267,0.000034,-0.000184,0.014893,0.001221,-0.999268,0.992241,0.010400,-0.123897,-0.000074,0.762761,0.044918,-0.645119,0.000001,1.221114,-14.233211,-0.161007,22.724882,-79.782976,-19.070086,9.672852,0.654881,0.592164,0,0.003464856,0
1786463609.041565,-0.000532,-0.000233,-0.000184,0.015625,0.001709,-0.999512,0.992199,0.010425,-0.124224,-0.000075,0.763230,0.046220,-0.644472,-0.000004,1.224265,-14.271006,-0.161963,23.147689,-79.660011,-19.386883,9.670072,0.673928,0.605440,0,0.003463697,0
1786463609.061546,0.000267,0.000034,-0.000583,0.014404,0.000977,-0.999023,0.992158,0.010454,-0.124550,-0.000078,0.763628,0.047497,-0.643907,-0.000005,1.227839,-14.308653,-0.163130,23.574635,-79.549060,-19.709669,9.665081,0.693267,0.620012,0,0.003462985,0
1786463609.081583,0.000134,0.000034,0.000082,0.015137,0.001953,-0.999023,0.992117,0.010483,-0.124876,-0.000078,0.764040,0.048917,-0.643312,-0.000003,1.231376,-14.346296,-0.163941,24.048883,-79.430046,-20.067780,9.662395,0.713629,0.631937,0,0.003464812,0
1786463609.101580,0.000001,-0.000366,0.000349,0.014893,0.001709,-0.999512,0.992075,0.010511,-0.125204,-0.000076,0.764419,0.050353,-0.642751,-0.000001,1.234767,-14.384174,-0.164593,24.531943,-79.315028,-20.433335,9.658451,0.734969,0.643723,0,0.003464524,0
1786463609.121537,0.000134,0.000034,-0.000583,0.014648,0.001221,-0.999023,0.992034,0.010539,-0.125530,-0.000079,0.764771,0.051788,-0.642218,-0.000004,1.238303,-14.421817,-0.165776,25.017157,-79.203409,-20.801494,9.654548,0.756529,0.655653,0,0.003462602,0
1786463609.141580,-0.000399,0.000300,-0.000184,0.014893,0.000488,-0.998779,0.991992,0.010564,-0.125855,-0.000080,0.765119,0.053180,-0.641689,-0.000006,1.241364,-14.459322,-0.166695,25.476080,-79.093139,-21.146847,9.651227,0.777628,0.666517,0,0.003464802,0
1786463609.161586,0.000400,-0.000100,0.000082,0.014648,0.000732,-0.999023,0.991951,0.010592,-0.126182,-0.000079,0.765431,0.054650,-0.641193,-0.000003,1.244885,-14.497056,-0.167474,25.969756,-78.985188,-21.520094,9.647446,0.799136,0.676645,0,0.003464876,0
1786463609.181590,0.000001,0.000300,0.000082,0.014893,0.001221,-0.999268,0.991909,0.010620,-0.126506,-0.000079,0.765733,0.056217,-0.640697,-0.000002,1.248246,-14.534555,-0.168267,26.498627,-78.874025,-21.920781,9.644162,0.821966,0.685856,0,0.003464844,0
1786463609.201605,0.000400,-0.000100,-0.000317,0.015137,0.001709,-0.999268,0.991867,0.010650,-0.126833,-0.000080,0.766017,0.057893,-0.640208,-0.000001,1.251966,-14.572272,-0.169321,27.068261,-78.760261,-22.353383,9.640759,0.846397,0.694842,0,0.003465301,0
1786463609.221532,0.000001,-0.000366,0.000082,0.015137,0.001465,-0.998535,0.991825,0.010677,-0.127161,-0.000080,0.766275,0.059588,-0.639744,-0.000001,1.255364,-14.610150,-0.170136,27.644281,-78.648786,-22.790824,9.636997,0.871559,0.704064,0,0.003461893,0
1786463609.241594,0.000001,-0.000366,-0.000184,0.015381,0.001221,-0.998291,0.991782,0.010705,-0.127489,-0.000081,0.766518,0.061308,-0.639290,-0.000002,1.258765,-14.648027,-0.171101,28.226073,-78.537221,-23.231996,9.633498,0.897124,0.712055,0,0.003465101,0
1786463609.261572,0.000134,-0.000100,-0.000051,0.014893,0.001221,-0.999268,0.991740,0.010733,-0.127815,-0.000081,0.766710,0.063084,-0.638886,-0.000001,1.262229,-14.685753,-0.171988,28.837708,-78.430217,-23.698304,9.629225,0.923280,0.718440,0,0.003463886,0
1786463609.281550,0.000400,0.000300,0.000216,0.015381,0.000977,-0.999023,0.991698,0.010761,-0.128140,-0.000079,0.766899,0.064884,-0.638479,0.000003,1.265764,-14.723257,-0.172704,29.447472,-78.321437,-24.160545,9.626047,0.949937,0.724541,0,0.003463024,0
1786463609.301605,0.000001,0.000034,0.000082,0.014893,0.001221,-0.999512,0.991655,0.010789,-0.128466,-0.000079,0.767031,0.066766,-0.638127,0.000003,1.269134,-14.760908,-0.173515,30.101309,-78.216564,-24.660401,9.621812,0.977450,0.729699,0,0.003465651,0
1786463609.321663,0.000001,-0.000233,-0.000317,0.015381,0.000977,-0.999512,0.991612,0.010816,-0.128793,-0.000080,0.767152,0.068676,-0.637779,0.000000,1.272526,-14.798710,-0.174559,30.759547,-78.110410,-25.162528,9.618651,1.005769,0.733604,0,0.003467746,0
1786463609.341616,0.000134,0.000167,-0.000184,0.014404,0.001709,-0.998535,0.991570,0.010845,-0.129118,-0.000081,0.767190,0.070729,-0.637509,-0.000000,1.276090,-14.836275,-0.175551,31.491156,-78.008979,-25.726129,9.613935,1.035422,0.738284,0,0.003464838,0
1786463609.361554,-0.000133,-0.000632,0.000349,0.015137,0.001221,-0.999023,0.991527,0.010871,-0.129447,-0.000080,0.767222,0.072774,-0.637240,0.000001,1.279347,-14.874311,-0.176220,32.209438,-77.906982,-26.276954,9.611114,1.065791,0.738797,0,0.003461994,0
1786463609.381631,0.000267,-0.000233,-0.000450,0.015625,0.001709,-0.999023,0.991484,0.010901,-0.129775,-0.000082,0.767237,0.074936,-0.636971,-0.000001,1.283017,-14.912102,-0.177376,32.965085,-77.799861,-26.855701,9.607927,1.097253,0.739833,0,0.003465819,0
1786463609.401563,0.000267,-0.000499,0.000082,0.015381,0.000488,-0.999512,0.991440,0.010928,-0.130103,-0.000081,0.767203,0.077018,-0.636763,0.000001,1.286437,-14.950067,-0.178178,33.699328,-77.702216,-27.419349,9.603845,1.128524,0.739739,0,0.003462467,0
1786463609.421592,0.000666,0.000167,-0.000184,0.014893,0.001709,-0.999023,0.991397,0.010960,-0.130428,-0.000082,0.767101,0.079300,-0.636607,0.000003,1.290306,-14.987633,-0.179179,34.518972,-77.602973,-28.051957,9.599780,1.161071,0.739339,0,0.003464092,0
1786463609.441716,-0.000133,-0.000233,-0.000184,0.015381,0.000977,-0.998779,0.991354,0.010986,-0.130755,-0.000083,0.766977,0.081549,-0.636471,0.000001,1.293611,-15.025436,-0.180159,35.325146,-77.505818,-28.674091,9.596649,1.194465,0.736440,0,0.003469406,0
1786463609.461918,0.000134,0.000300,-0.000317,0.014648,0.000977,-0.999756,0.991311,0.011014,-0.131080,-0.000084,0.766774,0.083865,-0.636415,-0.000001,1.297097,-15.062932,-0.181216,36.175089,-77.414823,-29.334458,9.592310,1.228190,0.731849,0,0.003476742,0
1786463609.481840,0.000400,0.000034,-0.000051,0.015137,0.001221,-0.998779,0.991267,0.011043,-0.131406,-0.000084,0.766541,0.086256,-0.636376,0.000001,1.300726,-15.100581,-0.182128,37.049157,-77.321571,-30.012412,9.589431,1.262919,0.726650,0,0.003470285,0
1786463609.501662,0.000001,0.000034,0.000216,0.015625,0.000977,-0.999268,0.991224,0.011070,-0.131731,-0.000083,0.766280,0.088663,-0.636359,0.000003,1.304046,-15.138236,-0.182874,37.927564,-77.228605,-30.693427,9.586435,1.298171,0.719159,0,0.003461153,0
1786463609.521571,0.000400,0.000433,-0.000184,0.015625,0.001953,-0.999268,0.991180,0.011101,-0.132055,-0.000084,0.765960,0.091237,-0.636382,0.000004,1.307794,-15.175646,-0.183891,38.871390,-77.132077,-31.426192,9.582904,1.334973,0.711383,0,0.003457998,0
1786463609.541815,-0.000266,-0.000233,-0.000317,0.014648,0.001221,-0.999268,0.991136,0.011127,-0.132382,-0.000085,0.765534,0.093791,-0.636522,-0.000001,1.311095,-15.213444,-0.184974,39.844085,-77.048241,-32.189949,9.578280,1.372353,0.701631,0,0.003469915,0
1786463609.561542,-0.000266,0.000167,-0.000184,0.014404,0.001221,-0.999268,0.991093,0.011153,-0.132707,-0.000086,0.765040,0.096389,-0.636728,-0.000003,1.314377,-15.251014,-0.185976,40.848591,-76.968046,-32.981602,9.574819,1.409969,0.688929,0,0.003456846,0
1786463609.581561,-0.000133,0.000167,0.000082,0.014893,0.000977,-0.999268,0.991049,0.011179,-0.133032,-0.000086,0.764509,0.099002,-0.636966,-0.000003,1.317655,-15.288591,-0.186811,41.860733,-76.888627,-33.779513,9.572228,1.447808,0.674091,0,0.003459439,0
1786463609.601543,-0.000133,-0.000100,-0.000184,0.015381,0.000732,-0.998779,0.991004,0.011206,-0.133359,-0.000087,0.763937,0.101626,-0.637238,-0.000004,1.320937,-15.326320,-0.187801,42.882880,-76.810019,-34.586520,9.569641,1.485786,0.658574,0,0.003459807,0
1786463609.621551,-0.000133,0.000300,0.000082,0.015381,0.001465,-0.999023,0.990960,0.011232,-0.133683,-0.000087,0.763295,0.104370,-0.637564,-0.000004,1.324279,-15.363815,-0.188656,43.958016,-76.729726,-35.436518,9.566574,1.524716,0.641255,0,0.003461199,0
1786463609.641544,0.000001,-0.000366,0.000216,0.014893,0.000977,-0.999756,0.990916,0.011259,-0.134011,-0.000086,0.762558,0.107100,-0.637992,-0.000002,1.327617,-15.401699,-0.189427,45.061672,-76.658635,-36.316075,9.562966,1.564004,0.621154,0,0.003461634,0
1786463609.661726,0.000400,0.000300,0.000082,0.014404,0.000977,-0.998535,0.990872,0.011288,-0.134335,-0.000085,0.761732,0.109870,-0.638509,0.000001,1.331210,-15.439200,-0.190272,46.207675,-76.592371,-37.234503,9.559650,1.603359,0.600449,0,0.003469981,0
1786463609.681797,0.000001,0.000300,-0.000184,0.015137,0.000977,-0.999023,0.990827,0.011316,-0.134659,-0.000086,0.760867,0.112657,-0.639054,0.000000,1.334609,-15.476697,-0.191275,47.364751,-76.524645,-38.162948,9.557750,1.643023,0.575244,0,0.003471584,0
1786463609.701747,0.000134,0.000034,-0.000051,0.014893,0.001221,-0.999268,0.990783,0.011344,-0.134985,-0.000086,0.759911,0.115492,-0.639685,0.000001,1.338102,-15.514345,-0.192216,48.566673,-76.460229,-39.132138,9.554823,1.682997,0.549105,0,0.003467590,0
1786463609.721641,0.000267,-0.000366,-0.000583,0.015869,0.001221,-0.998779,0.990738,0.011373,-0.135313,-0.000089,0.758923,0.118334,-0.640338,-0.000002,1.341748,-15.552215,-0.193478,49.773715,-76.393522,-40.106043,9.553217,1.723251,0.520992,0,0.003462238,0
1786463609.741561,-0.000133,-0.000233,-0.000051,0.015381,0.000977,-0.999268,0.990693,0.011399,-0.135639,-0.000089,0.757836,0.121155,-0.641097,-0.000003,1.345054,-15.590019,-0.194416,51.013936,-76.334784,-41.114642,9.550063,1.763004,0.491103,0,0.003459267,0
1786463609.761550,-0.000266,0.000034,-0.000184,0.014648,0.001465,-0.999268,0.990648,0.011425,-0.135965,-0.000090,0.756631,0.124039,-0.641968,-0.000005,1.348380,-15.627663,-0.195453,52.318715,-76.279766,-42.182743,9.546946,1.802957,0.458820,0,0.003460004,0
1786463609.781544,-0.000133,0.000034,-0.000317,0.014893,0.001709,-0.999023,0.990603,0.011453,-0.136291,-0.000092,0.755353,0.126942,-0.642905,-0.000007,1.351835,-15.665301,-0.196580,53.653445,-76.225236,-43.279182,9.544956,1.843208,0.423256,0,0.003460748,0
1786463609.801521,0.000400,0.000300,-0.000317,0.014160,0.000977,-0.999268,0.990558,0.011482,-0.136615,-0.000093,0.753965,0.129760,-0.643971,-0.000006,1.355505,-15.702796,-0.197681,55.017267,-76.182703,-44.411424,9.541997,1.882425,0.385138,0,0.003460591,0
1786463609.821729,0.000001,-0.000366,0.000216,0.015381,0.001221,-0.998779,0.990512,0.011509,-0.136942,-0.000092,0.752548,0.132560,-0.645057,-0.000004,1.358883,-15.740676,-0.198482,56.380770,-76.137243,-45.544706,9.541520,1.920767,0.344398,0,0.003470334,0
1786463609.841583,0.000400,-0.000366,0.000216,0.014648,0.001709,-0.999023,0.990466,0.011539,-0.137270,-0.000091,0.751009,0.135389,-0.646263,-0.000000,1.362566,-15.778551,-0.199307,57.806388,-76.095606,-46.737587,9.538925,1.958979,0.302266,0,0.003462568,0
1786463609.861559,0.000134,0.000034,0.000216,0.014893,0.001709,-0.998779,0.990421,0.011567,-0.137595,-0.000090,0.749402,0.138168,-0.647538,0.000002,1.366094,-15.816197,-0.200127,59.248842,-76.056533,-47.951464,9.537448,1.996600,0.257184,0,0.003461911,0
1786463609.881525,0.000134,0.000300,-0.000450,0.015625,0.001465,-0.999268,0.990376,0.011596,-0.137919,-0.000092,0.747755,0.140862,-0.648861,-0.000000,1.369689,-15.853684,-0.201331,60.687998,-76.019427,-49.169284,9.536538,2.033046,0.209451,0,0.003461006,0
1786463609.901570,-0.000133,0.000167,-0.000051,0.014648,0.001465,-0.999023,0.990330,0.011623,-0.138244,-0.000092,0.745979,0.143503,-0.650325,-0.000001,1.373080,-15.891252,-0.202305,62.181871,-75.990842,-50.446207,9.534048,2.068056,0.161296,0,0.003463705,0
1786463609.921537,-0.000133,-0.000366,-0.000317,0.015625,0.000488,-0.999268,0.990284,0.011649,-0.138572,-0.000094,0.744184,0.145950,-0.651835,-0.000004,1.376375,-15.929133,-0.203409,63.645798,-75.970031,-51.709213,9.533841,2.100876,0.108897,0,0.003462375,0
1786463609.941591,0.000134,0.000034,0.000349,0.015137,0.001709,-0.999268,0.990238,0.011677,-0.138897,-0.000092,0.742280,0.148452,-0.653439,-0.000000,1.379883,-15.966781,-0.204159,65.172677,-75.946418,-53.030136,9.532509,2.132700,0.056476,0,0.003465105,0
1786463609.961802,-0.000133,-0.000366,-0.000450,0.014893,0.001221,-0.998779,0.990192,0.011704,-0.139224,-0.000094,0.740294,0.150815,-0.655148,-0.000004,1.383309,-16.004652,-0.205376,66.720899,-75.931011,-54.384476,9.531258,2.163294,0.001387,0,0.003473863,0
1786463609.981606,0.000134,-0.000499,0.000349,0.014893,0.000488,-0.999268,0.990145,0.011731,-0.139552,-0.000092,0.738252,0.152984,-0.656947,-0.000001,1.386660,-16.042618,-0.206095,68.268735,-75.926535,-55.753812,9.530654,2.191000,-0.056904,0,0.003463083,0
1786463610.001565,0.000800,-0.000233,0.000082,0.015137,0.000977,-0.998535,0.990099,0.011762,-0.139879,-0.000091,0.736159,0.155094,-0.658799,0.000003,1.390500,-16.080423,-0.206988,69.833745,-75.921267,-57.145113,9.530695,2.216899,-0.115391,0,0.003461579,0
1786463610.021573,-0.000133,0.000300,-0.000184,0.014893,0.001221,-0.999268,0.990053,0.011789,-0.140203,-0.000092,0.733998,0.157104,-0.660731,0.000001,1.393885,-16.117915,-0.208045,71.423972,-75.918545,-58.570339,9.530210,2.241294,-0.176528,0,0.003462554,0
1786463610.041603,-0.000266,0.000167,0.000082,0.014648,0.001221,-0.998535,0.990006,0.011815,-0.140528,-0.000092,0.731772,0.158980,-0.662749,0.000000,1.397153,-16.155488,-0.208948,73.035177,-75.921005,-60.027460,9.529867,2.263637,-0.238151,0,0.003464235,0
1786463610.061534,-0.000266,0.000034,-0.000317,0.015381,0.001221,-0.998779,0.989960,0.011841,-0.140853,-0.000094,0.729537,0.160706,-0.664793,-0.000003,1.400482,-16.193132,-0.210092,74.631878,-75.925586,-61.482656,9.530686,2.283807,-0.302454,0,0.003461260,0
1786463610.081540,0.000267,-0.000499,-0.000184,0.015137,0.000977,-0.999512,0.989913,0.011870,-0.141181,-0.000094,0.727247,0.162263,-0.666921,-0.000003,1.404067,-16.231085,-0.211158,76.244790,-75.937314,-62.967761,9.530645,2.301327,-0.367384,0,0.003462207,0
1786463610.101593,0.000267,0.000300,-0.000583,0.015137,0.001221,-0.999023,0.989866,0.011899,-0.141505,-0.000097,0.724925,0.163693,-0.669095,-0.000004,1.407750,-16.268572,-0.212462,77.865161,-75.950475,-64.470876,9.531105,2.316639,-0.432204,0,0.003464939,0
1786463610.121515,0.000267,-0.000366,0.000216,0.014160,0.001221,-0.999268,0.989819,0.011927,-0.141833,-0.000096,0.722519,0.164967,-0.671381,-0.000001,1.411315,-16.306451,-0.213306,79.526824,-75.970403,-66.027923,9.530720,2.329450,-0.498731,0,0.003461401,0
1786463610.141535,0.000134,0.000300,-0.000051,0.015381,0.001221,-0.998779,0.989772,0.011955,-0.142157,-0.000096,0.720163,0.166053,-0.673641,-0.000000,1.414833,-16.343946,-0.214297,81.143093,-75.992076,-67.555141,9.532750,2.339782,-0.566436,0,0.003462895,0
1786463610.161639,0.000134,-0.001165,-0.000051,0.015381,0.000977,-0.998779,0.989724,0.011983,-0.142488,-0.000096,0.717785,0.166941,-0.675955,-0.000001,1.418327,-16.382282,-0.215303,82.763464,-76.020134,-69.103007,9.533660,2.347243,-0.633402,0,0.003467653,0
1786463610.181618,-0.000133,0.000167,0.000216,0.013916,0.001465,-0.999268,0.989677,0.012010,-0.142812,-0.000095,0.715324,0.167722,-0.678366,-0.000000,1.421700,-16.419853,-0.216157,84.435564,-76.049253,-70.711199,9.533360,2.352454,-0.700702,0,0.003465866,0
1786463610.201620,0.000800,-0.000366,0.000216,0.014648,0.001465,-0.998779,0.989629,0.012041,-0.143140,-0.000094,0.712898,0.168316,-0.680769,0.000005,1.425602,-16.457729,-0.217018,86.079304,-76.081555,-72.306121,9.535298,2.355353,-0.769557,0,0.003465543,0
1786463610.221571,-0.000133,-0.000100,0.000082,0.015381,0.001221,-0.999268,0.989582,0.012068,-0.143465,-0.000093,0.710526,0.168687,-0.683153,0.000004,1.428953,-16.495454,-0.217946,87.684108,-76.119118,-73.881057,9.537355,2.355385,-0.837934,0,0.003463082,0
1786463610.241593,0.000134,0.000300,0.000082,0.014648,0.000977,-0.999268,0.989534,0.012096,-0.143789,-0.000093,0.708132,0.168866,-0.685590,0.000005,1.432433,-16.532953,-0.218864,89.304667,-76.162479,-75.487497,9.538166,2.352498,-0.904116,0,0.003464288,0
1786463610.261600,-0.000133,-0.000233,-0.000184,0.014893,0.001709,-0.999023,0.989487,0.012123,-0.144116,-0.000094,0.705761,0.168941,-0.688012,0.000002,1.435902,-16.570744,-0.219978,90.913576,-76.202491,-77.091072,9.540177,2.347823,-0.970588,0,0.003464527,0
1786463610.281562,0.000267,0.000300,0.000082,0.014648,0.001221,-0.998535,0.989439,0.012151,-0.144440,-0.000093,0.703412,0.168790,-0.690451,0.000004,1.439493,-16.608240,-0.220910,92.513654,-76.250314,-78.704078,9.541582,2.340506,-1.035794,0,0.003462794,0
1786463610.301558,0.000001,-0.000100,-0.000317,0.014893,0.001221,-0.998535,0.989391,0.012179,-0.144765,-0.000095,0.701107,0.168463,-0.692870,0.000001,1.442999,-16.645959,-0.222089,94.091700,-76.300927,-80.309975,9.543756,2.330684,-1.100814,0,0.003462936,0
1786463610.321817,0.000134,0.000167,0.000082,0.014893,0.000977,-0.998535,0.989343,0.012207,-0.145090,-0.000094,0.698843,0.167937,-0.695280,0.000003,1.446483,-16.683533,-0.223018,95.653494,-76.357246,-81.915664,9.545831,2.318267,-1.164278,0,0.003474269,0
1786463610.341569,0.000400,0.000300,-0.000583,0.015381,0.001221,-0.999512,0.989295,0.012236,-0.145414,-0.000097,0.696653,0.167276,-0.697634,0.000002,1.450261,-16.721019,-0.224354,97.177282,-76.414010,-83.494749,9.548569,2.303932,-1.227416,0,0.003461204,0
1786463610.361596,0.000267,0.000300,-0.000317,0.014893,0.001221,-0.998291,0.989247,0.012265,-0.145738,-0.000098,0.694485,0.166461,-0.699987,0.000002,1.453924,-16.758509,-0.225535,98.700615,-76.473284,-85.085881,9.550381,2.287636,-1.286159,0,0.003463074,0
1786463610.381562,-0.000133,0.000034,0.000082,0.014648,0.000732,-0.999023,0.989199,0.012291,-0.146063,-0.000098,0.692361,0.165440,-0.702329,0.000001,1.457232,-16.796162,-0.226466,100.213201,-76.539500,-86.683350,9.552532,2.268859,-1.346110,0,0.003461857,0
1786463610.401541,-0.000532,0.000034,-0.000184,0.015381,0.001221,-0.999023,0.989151,0.012316,-0.146388,-0.000099,0.690334,0.164317,-0.704584,-0.000003,1.460413,-16.833806,-0.227575,101.674668,-76.604893,-88.238303,9.555898,2.248599,-1.403888,0,0.003461554,0
1786463610.421621,0.000134,0.000167,-0.000184,0.014648,0.001709,-0.998535,0.989102,0.012345,-0.146712,-0.000100,0.688319,0.163126,-0.706829,-0.000003,1.464047,-16.871368,-0.228705,103.142470,-76.667067,-89.804805,9.557767,2.227360,-1.458386,0,0.003465575,0
1786463610.441609,-0.000266,-0.000100,0.000349,0.014893,0.000977,-0.999023,0.989054,0.012370,-0.147038,-0.000098,0.686389,0.161715,-0.709026,-0.000002,1.467266,-16.909099,-0.229494,104.578917,-76.739000,-91.358041,9.560493,2.203934,-1.513411,0,0.003464693,0
1786463610.461645,-0.000133,0.000300,0.000216,0.014893,0.001221,-0.998779,0.989005,0.012397,-0.147362,-0.000097,0.684528,0.160212,-0.711164,-0.000001,1.470614,-16.946596,-0.230369,105.987702,-76.810943,-92.891120,9.563324,2.179015,-1.565144,0,0.003466063,0
1786463610.481694,0.000267,0.000167,-0.000583,0.014648,0.001465,-0.999512,0.988956,0.012426,-0.147686,-0.000100,0.682716,0.158634,-0.713256,-0.000002,1.474367,-16.984155,-0.231737,107.380173,-76.881270,-94.414142,9.565862,2.153296,-1.615988,0,0.003467682,0
1786463610.501722,0.000267,-0.000233,-0.000184,0.014648,0.000977,-0.999512,0.988907,0.012455,-0.148012,-0.000101,0.680978,0.156896,-0.715299,-0.000002,1.477991,-17.021953,-0.232856,108.750394,-76.958077,-95.927975,9.568614,2.125924,-1.664668,0,0.003468012,0
1786463610.521740,0.000400,0.000300,-0.000317,0.015137,0.000977,-0.998779,0.988858,0.012484,-0.148336,-0.000102,0.679347,0.155059,-0.717248,-0.000000,1.481709,-17.059445,-0.234048,110.070592,-77.038303,-97.399844,9.572081,2.097306,-1.710344,0,0.003467802,0
1786463610.541714,-0.000266,0.000034,-0.000051,0.014893,0.000977,-0.998291,0.988809,0.012510,-0.148661,-0.000102,0.677777,0.153135,-0.719144,-0.000002,1.485004,-17.097093,-0.235087,111.372415,-77.119681,-98.860665,9.574934,2.067742,-1.753395,0,0.003465808,0
1786463610.561684,0.000533,0.000167,-0.000317,0.015381,0.001221,-0.999023,0.988760,0.012540,-0.148985,-0.000103,0.676308,0.151163,-0.720941,-0.000000,1.488831,-17.134658,-0.236295,112.624503,-77.202118,-100.275324,9.578530,2.037688,-1.795945,0,0.003464077,0
1786463610.581671,0.000134,-0.000632,0.000082,0.014648,0.001221,-0.999023,0.988710,0.012568,-0.149313,-0.000103,0.674865,0.149128,-0.722715,0.000000,1.492372,-17.172687,-0.237281,113.880338,-77.283555,-101.699008,9.580937,2.007015,-1.835096,0,0.003463534,0
1786463610.601784,-0.000133,-0.000233,0.000082,0.014893,0.000732,-0.999023,0.988660,0.012594,-0.149640,-0.000103,0.673520,0.146973,-0.724410,-0.000000,1.495696,-17.210492,-0.238244,115.100158,-77.371719,-103.096535,9.584266,1.975294,-1.873264,0,0.003468491,0
1786463610.621610,0.000666,0.000167,-0.000184,0.014893,0.001221,-0.998535,0.988611,0.012625,-0.149964,-0.000103,0.672249,0.144830,-0.726020,0.000003,1.499585,-17.248058,-0.239381,116.282383,-77.457118,-104.455143,9.587574,1.943424,-1.908319,0,0.003459991,0
1786463610.641552,-0.000266,0.000034,-0.000184,0.015137,0.001221,-0.998779,0.988561,0.012651,-0.150289,-0.000104,0.671067,0.142636,-0.727546,-0.000000,1.502941,-17.285702,-0.240522,117.424906,-77.544844,-105.778715,9.591002,1.911462,-1.942112,0,0.003458551,0
1786463610.661546,0.000400,0.000034,-0.000450,0.015625,0.001465,-0.999512,0.988511,0.012681,-0.150614,-0.000106,0.669984,0.140434,-0.728971,-0.000000,1.506753,-17.323338,-0.241834,118.516456,-77.633790,-107.051621,9.594732,1.879538,-1.974016,0,0.003459672,0
1786463610.681517,0.000001,0.000034,-0.000184,0.014648,0.001221,-0.998535,0.988461,0.012708,-0.150938,-0.000107,0.668916,0.138185,-0.730381,-0.000001,1.510271,-17.360981,-0.242982,119.619125,-77.721852,-108.339533,9.597038,1.847277,-2.001523,0,0.003459507,0
1786463610.701574,-0.000133,-0.000499,0.000216,0.014893,0.000977,-0.999512,0.988411,0.012734,-0.151266,-0.000106,0.667931,0.135879,-0.731713,-0.000001,1.513611,-17.398937,-0.243892,120.690212,-77.814264,-109.600398,9.600504,1.814510,-2.030656,0,0.003463050,0
1786463610.721555,0.000267,-0.000366,-0.000317,0.015381,0.001221,-0.998779,0.988361,0.012763,-0.151593,-0.000107,0.667046,0.133586,-0.732942,-0.000002,1.517302,-17.436807,-0.245130,121.706966,-77.907847,-110.805820,9.604328,1.781960,-2.055741,0,0.003462498,0
1786463610.741533,-0.000133,0.000034,0.000082,0.015137,0.000732,-0.998535,0.988310,0.012789,-0.151918,-0.000107,0.666221,0.131230,-0.734117,-0.000002,1.520633,-17.474459,-0.246106,122.709598,-78.005736,-112.002273,9.607475,1.749043,-2.078604,0,0.003461969,0
1786463610.761535,0.000134,0.000433,-0.000184,0.015137,0.001221,-0.998779,0.988260,0.012818,-0.152240,-0.000108,0.665462,0.128928,-0.735213,-0.000001,1.524225,-17.511873,-0.247257,123.672638,-78.100818,-113.154509,9.610972,1.716617,-2.100351,0,0.003462581,0
