timestamp,gx,gy,gz,ax,ay,az,madgwick_qw,madgwick_qx,madgwick_qy,madgwick_qz,kalman_qw,kalman_qx,kalman_qy,kalman_qz,madgwick_roll_deg,madgwick_pitch_deg,madgwick_yaw_deg,kalman_roll_deg,kalman_pitch_deg,kalman_yaw_deg,robot_accel_x,robot_accel_y,robot_accel_z,kalman_converged,kalman_P_change,convergence_counter
1786468668.472701,0.000800,0.000566,-0.000450,-0.110352,0.018311,-0.993408,1.000000,0.000058,0.000328,-0.000002,0.999947,0.009752,0.003344,-0.000002,0.006648,0.037630,-0.000256,1.117547,0.383153,0.003464,-0.110407,0.018389,8.816592,0,0.087903733,0
1786468668.490736,0.000134,0.001632,-0.000450,-0.110107,0.016846,-0.993164,1.000000,0.000109,0.000663,-0.000005,0.999717,0.023121,0.005643,-0.000007,0.012448,0.075944,-0.000508,2.649847,0.646509,0.014200,-0.175999,0.208195,8.814748,0,0.030863668,0
1786468668.510054,0.000933,0.000433,-0.000717,-0.110352,0.018066,-0.992920,0.999999,0.000167,0.000991,-0.000008,0.999111,0.041534,0.007245,-0.000014,0.019092,0.113511,-0.000908,4.761204,0.829555,0.032896,-0.221131,0.471749,8.805958,0,0.016636809,0
1786468668.529919,0.000533,0.000966,-0.000717,-0.110107,0.018555,-0.993408,0.999999,0.000224,0.001321,-0.000012,0.997798,0.065834,0.008068,-0.000021,0.025680,0.151353,-0.001304,7.550165,0.922667,0.058448,-0.252335,0.832831,8.781704,0,0.010979876,0
1786468668.549862,0.000134,0.000300,-0.000583,-0.109863,0.017578,-0.992920,0.999999,0.000277,0.001648,-0.000015,0.995253,0.097009,0.007740,-0.000027,0.031738,0.188864,-0.001620,11.134952,0.883051,0.082923,-0.267906,1.306412,8.730764,0,0.008167865,0
1786468668.570002,0.000533,0.000833,-0.000583,-0.109619,0.018066,-0.992920,0.999998,0.000333,0.001978,-0.000018,0.990583,0.136798,0.005593,-0.000033,0.038195,0.226653,-0.001932,15.725970,0.635368,0.083921,-0.260990,1.912455,8.631241,0,0.006589345,0
1786468668.589972,0.001066,0.001099,-0.000717,-0.110107,0.017578,-0.994141,0.999997,0.000391,0.002309,-0.000021,0.982449,0.186533,0.000466,-0.000039,0.044777,0.264623,-0.002316,21.501096,0.053330,0.005555,-0.219136,2.676484,8.448022,0,0.005611514,0
1786468668.610115,0.000400,0.001099,-0.000583,-0.109863,0.017578,-0.994141,0.999996,0.000445,0.002641,-0.000024,0.968879,0.247355,-0.009439,-0.000043,0.050992,0.302590,-0.002620,28.645943,-1.046790,-0.272370,-0.119238,3.613201,8.133154,0,0.004985889,0
1786468668.630084,0.000533,0.001232,-0.000583,-0.109863,0.018066,-0.993652,0.999995,0.000501,0.002972,-0.000027,0.947344,0.319109,-0.026603,-0.000045,0.057439,0.340609,-0.002919,37.256456,-2.887569,-0.979013,0.069089,4.720247,7.614110,0,0.004555018,0
1786468668.650371,0.000533,0.000433,-0.000317,-0.110840,0.017578,-0.994873,0.999994,0.000556,0.003300,-0.000029,0.915241,0.399261,-0.054078,-0.000046,0.063685,0.378202,-0.003063,47.260732,-5.678871,-2.491975,0.383245,5.948939,6.803264,0,0.004270764,0
1786468668.670669,0.001199,0.000699,-0.000583,-0.110107,0.017578,-0.993408,0.999993,0.000614,0.003630,-0.000032,0.871057,0.481975,-0.094655,-0.000045,0.070349,0.415942,-0.003355,58.354644,-9.488900,-5.312544,0.860441,7.187341,5.631442,0,0.004069485,0
1786468668.689858,0.000134,0.000833,-0.000450,-0.109375,0.018066,-0.993408,0.999992,0.000669,0.003959,-0.000034,0.816150,0.558216,-0.149312,-0.000042,0.076596,0.453726,-0.003566,69.969156,-14.103539,-9.901097,1.507716,8.255196,4.083088,0,0.003874781,0
1786468668.709837,0.000533,0.000833,-0.000450,-0.109863,0.018066,-0.993164,0.999991,0.000725,0.004289,-0.000036,0.754289,0.619680,-0.216898,-0.000036,0.083046,0.491515,-0.003772,81.608523,-19.096629,-16.530574,2.280453,8.956884,2.265674,0,0.003768361,0
1786468668.729916,0.000933,0.000566,-0.000583,-0.109131,0.017578,-0.993652,0.999989,0.000782,0.004618,-0.000039,0.691125,0.660373,-0.293691,-0.000031,0.089612,0.529169,-0.004052,92.803059,-23.948374,-25.117521,3.100209,9.188533,0.359058,0,0.003694501,0
1786468668.749805,0.000800,0.001232,-0.000717,-0.109863,0.018311,-0.993896,0.999987,0.000840,0.004949,-0.000043,0.631532,0.678875,-0.374561,-0.000022,0.096291,0.567174,-0.004402,103.276913,-28.233450,-35.258576,3.872030,8.973106,-1.432380,0,0.003631585,0
1786468668.770056,0.000134,0.000566,-0.000317,-0.110107,0.017822,-0.993652,0.999986,0.000894,0.005278,-0.000044,0.578406,0.677111,-0.454936,-0.000017,0.102432,0.604822,-0.004521,112.900791,-31.752632,-46.431359,4.530631,8.429714,-2.978525,0,0.003600449,0
1786468668.790228,0.000533,0.000699,-0.000450,-0.110596,0.017578,-0.993652,0.999984,0.000949,0.005607,-0.000046,0.532708,0.658930,-0.531068,-0.000010,0.108703,0.642563,-0.004713,121.632120,-34.457555,-58.082699,5.051922,7.701814,-4.239730,0,0.003573814,0
1786468668.809779,0.000001,0.001099,-0.000850,-0.110352,0.018066,-0.993408,0.999982,0.001002,0.005938,-0.000051,0.494255,0.628724,-0.600349,-0.000006,0.114826,0.680506,-0.005128,129.450252,-36.401675,-69.705908,5.440080,6.905223,-5.235564,0,0.003527174,0
1786468668.829819,0.000267,0.000966,-0.000450,-0.110107,0.017334,-0.993652,0.999980,0.001055,0.006269,-0.000053,0.461983,0.590308,-0.661897,-0.000001,0.120897,0.718407,-0.005313,136.419439,-37.703116,-80.998896,5.711605,6.114341,-6.010651,0,0.003513271,0
1786468668.849786,0.000134,0.000966,-0.000717,-0.109863,0.018066,-0.993164,0.999978,0.001110,0.006600,-0.000057,0.434773,0.547099,-0.715301,0.000002,0.127120,0.756270,-0.005643,142.587634,-38.461588,-91.705904,5.889671,5.368765,-6.615594,0,0.003499679,0
1786468668.869913,0.000400,0.001232,-0.000583,-0.110352,0.017334,-0.993408,0.999975,0.001163,0.006932,-0.000060,0.411554,0.501541,-0.760973,0.000008,0.133255,0.794324,-0.005895,148.023874,-38.782831,-101.706248,5.991466,4.684218,-7.094566,0,0.003496321,0
1786468668.890053,0.000933,0.000699,-0.000450,-0.110840,0.017822,-0.993408,0.999973,0.001220,0.007261,-0.000062,0.391412,0.455672,-0.799474,0.000013,0.139818,0.832054,-0.006067,152.784860,-38.745373,-110.906776,6.033907,4.067424,-7.480234,0,0.003494340,0
1786468668.910042,0.000001,0.001099,-0.000717,-0.109863,0.017822,-0.993408,0.999970,0.001274,0.007592,-0.000065,0.373792,0.410847,-0.831555,0.000013,0.145893,0.870004,-0.006385,156.914992,-38.438032,-119.270173,6.029928,3.517039,-7.797418,0,0.003486399,0
1786468668.930037,0.000800,0.000833,-0.000583,-0.110107,0.017334,-0.993896,0.999968,0.001329,0.007922,-0.000068,0.357999,0.368013,-0.858139,0.000017,0.152273,0.907826,-0.006626,160.491808,-37.911163,-126.817941,5.988537,3.030156,-8.062527,0,0.003480690,0
1786468668.949898,0.000533,0.000699,-0.000583,-0.110596,0.017090,-0.993652,0.999965,0.001383,0.008252,-0.000071,0.343558,0.327829,-0.880054,0.000018,0.158408,0.945586,-0.006865,163.573243,-37.208097,-133.574924,5.917122,2.601704,-8.289027,0,0.003470665,0
1786468668.969966,0.000533,0.000433,-0.000717,-0.110352,0.017578,-0.994141,0.999962,0.001438,0.008580,-0.000075,0.330160,0.290654,-0.898061,0.000017,0.164695,0.983169,-0.007174,166.212483,-36.371517,-139.583168,5.821903,2.227051,-8.488317,0,0.003471972,0
1786468668.989921,0.000933,0.000300,-0.000583,-0.110352,0.017822,-0.993164,0.999959,0.001495,0.008907,-0.000078,0.317508,0.256652,-0.912863,0.000020,0.171284,1.020665,-0.007402,168.464810,-35.428967,-144.897493,5.707186,1.900228,-8.664468,0,0.003468106,0
1786468669.009940,0.000400,0.000833,-0.000983,-0.110840,0.018311,-0.992920,0.999956,0.001551,0.009236,-0.000083,0.305360,0.225857,-0.925064,0.000018,0.177680,1.058446,-0.007851,170.378993,-34.399700,-149.574483,5.576050,1.616824,-8.824915,0,0.003467921,0
1786468669.029955,0.000933,0.000833,-0.000717,-0.110107,0.017578,-0.992676,0.999953,0.001608,0.009566,-0.000086,0.293670,0.198047,-0.935166,0.000021,0.184212,1.096254,-0.008147,172.001247,-33.316818,-153.688426,5.432290,1.370326,-8.973152,0,0.003467634,0
1786468669.049914,0.000533,0.000566,-0.000450,-0.110352,0.017578,-0.994385,0.999950,0.001663,0.009895,-0.000089,0.282249,0.173184,-0.943580,0.000021,0.190510,1.133911,-0.008288,173.369487,-32.185145,-157.284664,5.278050,1.158261,-9.112270,0,0.003464996,0
1786468669.070481,0.000267,0.001099,-0.000450,-0.110107,0.017578,-0.993652,0.999946,0.001717,0.010226,-0.000091,0.271005,0.151027,-0.950656,0.000019,0.196667,1.171871,-0.008423,174.521533,-31.015619,-160.424932,5.115434,0.976240,-9.240517,0,0.003489017,0
1786468669.090827,0.000267,0.000699,-0.000450,-0.110352,0.018066,-0.994141,0.999943,0.001772,0.010555,-0.000093,0.259848,0.131481,-0.956657,0.000017,0.202948,1.209581,-0.008552,175.485328,-29.813244,-163.146469,4.944576,0.820739,-9.363103,0,0.003497642,0
1786468669.110450,0.000134,0.001099,-0.000317,-0.110840,0.017334,-0.993652,0.999939,0.001824,0.010887,-0.000095,0.248744,0.114262,-0.961806,0.000015,0.208932,1.247555,-0.008604,176.290258,-28.586879,-165.504648,4.766621,0.687331,-9.478791,0,0.003473235,0
1786468669.130244,0.000533,0.001099,-0.000583,-0.110352,0.017578,-0.994141,0.999935,0.001879,0.011218,-0.000098,0.237741,0.099226,-0.966247,0.000016,0.215229,1.285516,-0.008804,176.957155,-27.350710,-167.532942,4.583824,0.574890,-9.590083,0,0.003462227,0
1786468669.150891,0.000666,0.000833,-0.000983,-0.110107,0.018555,-0.993408,0.999931,0.001937,0.011547,-0.000103,0.226727,0.086180,-0.970138,0.000017,0.221877,1.323279,-0.009222,177.508068,-26.098573,-169.269565,4.397099,0.481054,-9.694402,0,0.003490293,0
1786468669.169992,0.000933,0.000566,-0.000450,-0.110107,0.018066,-0.992432,0.999927,0.001995,0.011876,-0.000105,0.215748,0.074850,-0.973576,0.000020,0.228553,1.360909,-0.009335,177.962873,-24.840720,-170.758659,4.205568,0.400983,-9.793819,0,0.003445524,0
1786468669.189987,0.000134,0.001232,-0.000983,-0.109375,0.018311,-0.992920,0.999923,0.002050,0.012207,-0.000110,0.204829,0.065063,-0.976633,0.000016,0.234865,1.398905,-0.009745,178.335416,-23.583639,-172.029655,4.011991,0.334821,-9.889563,0,0.003449868,0
1786468669.210005,0.000134,0.000966,-0.000450,-0.110352,0.017578,-0.994141,0.999919,0.002104,0.012538,-0.000112,0.193795,0.056536,-0.979412,0.000014,0.240943,1.436787,-0.009852,178.644427,-22.309642,-173.125239,3.814677,0.278753,-9.980911,0,0.003454123,0
1786468669.229938,0.000800,0.000699,-0.000983,-0.110352,0.017578,-0.993652,0.999915,0.002160,0.012867,-0.000117,0.182722,0.049213,-0.981932,0.000016,0.247394,1.474517,-0.010261,178.897885,-21.029176,-174.057102,3.613763,0.232210,-10.066744,0,0.003453730,0
1786468669.250291,0.000533,0.000566,-0.000717,-0.110107,0.017822,-0.992676,0.999910,0.002216,0.013195,-0.000121,0.171607,0.042950,-0.984229,0.000016,0.253774,1.512157,-0.010511,179.104538,-19.742995,-174.846732,3.410249,0.193896,-10.147576,0,0.003471318,0
1786468669.269813,0.000666,0.000566,-0.000583,-0.110352,0.017822,-0.993652,0.999906,0.002272,0.013524,-0.000124,0.160468,0.037611,-0.986324,0.000017,0.260223,1.549798,-0.010682,179.272942,-18.454287,-175.514295,3.203583,0.162040,-10.225832,0,0.003449181,0
1786468669.289826,0.000800,0.000699,-0.000717,-0.109863,0.017578,-0.993652,0.999901,0.002329,0.013853,-0.000128,0.149338,0.033036,-0.988234,0.000019,0.266704,1.587522,-0.010925,179.410584,-17.167326,-176.081765,2.995601,0.135554,-10.298397,0,0.003453385,0
1786468669.310289,0.000533,0.001365,-0.000717,-0.110352,0.018311,-0.992676,0.999897,0.002385,0.014185,-0.000131,0.138094,0.029219,-0.989988,0.000019,0.273206,1.625599,-0.011158,179.521568,-15.868077,-176.552211,2.785461,0.114671,-10.365033,0,0.003475781,0
1786468669.329935,0.000666,0.000699,-0.000450,-0.110352,0.017578,-0.993652,0.999892,0.002441,0.014514,-0.000134,0.126840,0.025909,-0.991585,0.000020,0.279597,1.663324,-0.011241,179.613260,-14.569019,-176.957101,2.572060,0.096271,-10.429466,0,0.003457821,0
1786468669.350120,0.000533,0.000566,-0.000717,-0.109619,0.018066,-0.993164,0.999887,0.002498,0.014843,-0.000137,0.115609,0.023162,-0.993025,0.000020,0.286068,1.700948,-0.011469,179.687014,-13.273888,-177.291237,2.358156,0.082087,-10.487483,0,0.003467223,0
1786468669.370245,0.000400,0.001498,-0.000583,-0.109863,0.017822,-0.993652,0.999882,0.002553,0.015176,-0.000140,0.104332,0.020816,-0.994325,0.000018,0.292391,1.739116,-0.011616,179.747748,-11.974739,-177.574984,2.142861,0.069928,-10.541355,0,0.003471786,0
1786468669.391046,0.000134,0.000699,-0.000583,-0.110352,0.018311,-0.993408,0.999876,0.002608,0.015505,-0.000143,0.092927,0.018885,-0.995494,0.000015,0.298669,1.776810,-0.011758,179.797146,-10.662113,-177.807460,1.925171,0.060558,-10.589812,0,0.003504164,0
1786468669.410051,0.000400,0.000833,-0.000583,-0.109863,0.017090,-0.993164,0.999871,0.002661,0.015835,-0.000146,0.081605,0.017142,-0.996517,0.000015,0.304804,1.814627,-0.011904,179.839257,-9.360289,-178.015803,1.705304,0.051169,-10.633709,0,0.003451785,0
1786468669.429759,0.000533,0.000833,-0.000983,-0.109619,0.017822,-0.993408,0.999866,0.002717,0.016164,-0.000151,0.070298,0.015760,-0.997402,0.000015,0.311207,1.852412,-0.012269,179.873560,-8.061244,-178.180568,1.486059,0.044907,-10.672725,0,0.003442367,0
1786468669.450016,0.000933,0.001099,-0.000450,-0.110352,0.017334,-0.992676,0.999860,0.002774,0.016496,-0.000153,0.058869,0.014541,-0.998160,0.000020,0.317695,1.890374,-0.012329,179.903481,-6.749140,-178.325070,1.265536,0.038597,-10.705687,0,0.003458666,0
1786468669.470138,0.000400,0.001099,-0.000184,-0.110107,0.017822,-0.993408,0.999854,0.002829,0.016827,-0.000154,0.047446,0.013565,-0.998782,0.000019,0.324019,1.928312,-0.012228,179.928075,-5.438481,-178.440401,1.043004,0.034159,-10.735388,0,0.003465206,0
1786468669.490174,0.000533,0.000433,-0.000717,-0.109863,0.017822,-0.993408,0.999849,0.002885,0.017154,-0.000158,0.036022,0.012747,-0.999270,0.000019,0.330419,1.965868,-0.012429,179.949413,-4.128436,-178.536500,0.819983,0.029990,-10.759233,0,0.003466472,0
1786468669.510079,0.000400,0.001232,-0.000717,-0.110352,0.017822,-0.993652,0.999843,0.002940,0.017486,-0.000162,0.024550,0.012058,-0.999626,0.000018,0.336724,2.003884,-0.012625,179.968106,-2.813351,-178.617063,0.596135,0.026393,-10.778176,0,0.003461843,0
1786468669.530064,0.000400,0.001099,-0.000583,-0.110107,0.017578,-0.993408,0.999837,0.002995,0.017817,-0.000165,0.013087,0.011449,-0.999849,0.000017,0.342981,2.041832,-0.012743,179.984823,-1.499650,-178.687686,0.371607,0.022959,-10.791572,0,0.003461734,0
1786468669.550143,0.000800,0.000433,-0.000583,-0.110596,0.017822,-0.993652,0.999831,0.003052,0.018145,-0.000168,0.001556,0.010959,-0.999939,0.000020,0.349509,2.079391,-0.012857,-179.999645,-0.178293,-178.744201,0.146226,0.020265,-10.800290,0,0.003465713,0
1786468669.570174,0.000800,0.000566,-0.000583,-0.109863,0.017822,-0.993164,0.999825,0.003109,0.018473,-0.000171,-0.009912,0.010541,-0.999895,0.000022,0.356068,2.117021,-0.012965,-179.985465,1.135781,-178.791841,-0.079225,0.017605,-10.803116,0,0.003466624,0
1786468669.590351,0.000400,0.000566,-0.000317,-0.110107,0.018311,-0.992920,0.999818,0.003165,0.018801,-0.000172,-0.021420,0.010233,-0.999718,0.000021,0.362516,2.154631,-0.012913,-179.972456,2.454634,-178.826454,-0.304447,0.015742,-10.800994,0,0.003473546,0
1786468669.610367,0.000666,0.000833,-0.000583,-0.109863,0.018066,-0.993408,0.999812,0.003222,0.019131,-0.000175,-0.032895,0.009940,-0.999409,0.000022,0.369062,2.192403,-0.013010,-179.959922,3.769903,-178.858975,-0.529846,0.013219,-10.794413,0,0.003471893,0
1786468669.630242,0.000400,0.001232,-0.000450,-0.109375,0.017822,-0.994385,0.999805,0.003278,0.019462,-0.000177,-0.044293,0.009657,-0.998972,0.000021,0.375420,2.230408,-0.013027,-179.948401,5.076992,-178.889964,-0.754140,0.010891,-10.783171,0,0.003464659,0
1786468669.650238,0.000533,0.000833,-0.000717,-0.110596,0.018066,-0.993408,0.999799,0.003334,0.019792,-0.000181,-0.055828,0.009441,-0.998396,0.000021,0.381859,2.268184,-0.013193,-179.936807,6.400443,-178.912909,-0.978562,0.009150,-10.764931,0,0.003464358,0
1786468669.670311,-0.000133,0.000566,-0.000450,-0.110107,0.018066,-0.992920,0.999792,0.003387,0.020120,-0.000183,-0.067318,0.009249,-0.997689,0.000016,0.387942,2.305802,-0.013203,-179.926174,7.719544,-178.932702,-1.203582,0.007330,-10.741781,0,0.003467422,0
1786468669.690336,0.000800,0.000566,-0.000450,-0.110107,0.017334,-0.993164,0.999785,0.003443,0.020449,-0.000186,-0.078796,0.008999,-0.996850,0.000019,0.394382,2.343449,-0.013215,-179.915508,9.038305,-178.958825,-1.427717,0.004641,-10.714267,0,0.003467655,0
1786468669.710234,0.000666,0.000566,-0.000450,-0.109863,0.018311,-0.993896,0.999778,0.003501,0.020777,-0.000188,-0.090221,0.008884,-0.995882,0.000021,0.400993,2.381056,-0.013214,-179.904229,10.352244,-178.969072,-1.650853,0.003881,-10.682098,0,0.003462428,0
1786468669.730690,0.000533,0.000566,-0.000450,-0.110352,0.017334,-0.993652,0.999771,0.003556,0.021105,-0.000190,-0.101709,0.008673,-0.994776,0.000021,0.407275,2.418703,-0.013219,-179.894337,11.674746,-178.990199,-1.873089,0.001082,-10.643968,0,0.003482289,0
1786468669.750611,0.000400,0.001232,-0.000317,-0.110596,0.017822,-0.992920,0.999764,0.003611,0.021437,-0.000192,-0.113197,0.008541,-0.993536,0.000020,0.413592,2.456713,-0.013137,-179.883950,12.998779,-179.001747,-2.095468,0.000016,-10.600004,0,0.003474425,0
1786468669.769953,0.000800,0.000699,-0.000717,-0.110596,0.017578,-0.993652,0.999756,0.003667,0.021766,-0.000196,-0.124624,0.008395,-0.992169,0.000023,0.420071,2.494428,-0.013284,-179.873604,14.317555,-179.014548,-2.317032,-0.001961,-10.552279,0,0.003443845,0
1786468669.789954,0.000134,0.000566,-0.001116,-0.110107,0.018066,-0.993896,0.999749,0.003722,0.022094,-0.000201,-0.135982,0.008319,-0.990676,0.000020,0.426294,2.532046,-0.013651,-179.863008,15.630280,-179.018924,-2.535972,-0.002982,-10.499202,0,0.003448889,0
1786468669.810433,0.000533,0.000167,-0.000717,-0.110107,0.017578,-0.994141,0.999741,0.003777,0.022420,-0.000205,-0.147346,0.008188,-0.989051,0.000021,0.432641,2.569452,-0.013791,-179.852982,16.945636,-179.029485,-2.753171,-0.005152,-10.441352,0,0.003473046,0
1786468669.830180,0.000533,0.000300,-0.000450,-0.109131,0.017822,-0.993652,0.999734,0.003834,0.022747,-0.000207,-0.158569,0.008094,-0.987315,0.000021,0.439091,2.606918,-0.013770,-179.842594,18.247046,-179.035316,-2.968339,-0.006381,-10.377705,0,0.003460066,0
1786468669.850132,0.000666,0.001099,-0.000717,-0.110352,0.017090,-0.993652,0.999726,0.003889,0.023078,-0.000211,-0.169878,0.007930,-0.985433,0.000023,0.445394,2.644876,-0.013904,-179.833403,19.560734,-179.049136,-3.181803,-0.008673,-10.310391,0,0.003458967,0
1786468669.870014,0.000533,0.000300,-0.000450,-0.110352,0.017334,-0.993652,0.999718,0.003943,0.023405,-0.000213,-0.181156,0.007813,-0.983423,0.000023,0.451685,2.682367,-0.013882,-179.823640,20.873503,-179.057173,-3.394742,-0.009671,-10.237469,0,0.003455216,0
1786468669.890155,0.000134,0.000566,-0.000583,-0.110352,0.017822,-0.993408,0.999710,0.003997,0.023733,-0.000216,-0.192408,0.007761,-0.981284,0.000020,0.457858,2.719991,-0.013926,-179.812739,22.185979,-179.056973,-3.605608,-0.010457,-10.159568,0,0.003463439,0
1786468669.910626,0.000666,0.001232,-0.001116,-0.110107,0.017090,-0.992920,0.999702,0.004052,0.024065,-0.000222,-0.203620,0.007633,-0.979020,0.000023,0.464162,2.758025,-0.014276,-179.802960,23.496656,-179.065610,-3.814272,-0.012807,-10.076661,0,0.003483704,0
1786468669.930146,0.000800,0.000433,-0.000583,-0.109131,0.017578,-0.993164,0.999694,0.004110,0.024393,-0.000225,-0.214667,0.007568,-0.976658,0.000025,0.470706,2.795574,-0.014312,-179.791818,24.791170,-179.066363,-4.020258,-0.013546,-9.989731,0,0.003458377,0
1786468669.950438,0.000533,0.000833,-0.000717,-0.110352,0.017578,-0.993408,0.999686,0.004165,0.024722,-0.000229,-0.225804,0.007504,-0.974144,0.000026,0.477051,2.833359,-0.014422,-179.780597,26.099435,-179.066436,-4.223653,-0.014937,-9.899350,0,0.003472229,0
1786468669.970103,0.000533,0.000167,-0.000051,-0.110352,0.017822,-0.993652,0.999677,0.004221,0.025049,-0.000229,-0.236879,0.007463,-0.971511,0.000025,0.483471,2.870750,-0.014146,-179.768755,27.403912,-179.063414,-4.426039,-0.016009,-9.803295,0,0.003455966,0
1786468669.990388,0.000267,0.000833,-0.000583,-0.110352,0.017334,-0.992920,0.999669,0.004274,0.025378,-0.000232,-0.247924,0.007372,-0.968752,0.000023,0.489614,2.908543,-0.014174,-179.758322,28.708433,-179.066116,-4.625358,-0.017917,-9.702086,0,0.003470134,0
1786468670.010118,0.000267,0.000966,-0.000583,-0.110352,0.017822,-0.993164,0.999660,0.004329,0.025709,-0.000235,-0.258898,0.007342,-0.965877,0.000021,0.495867,2.946393,-0.014191,-179.745730,30.008438,-179.060769,-4.822446,-0.018570,-9.597287,0,0.003457105,0
1786468670.030464,0.000134,0.000833,-0.000717,-0.109863,0.018066,-0.993896,0.999651,0.004384,0.026038,-0.000239,-0.269784,0.007333,-0.962893,0.000020,0.502114,2.984155,-0.014278,-179.732169,31.301756,-179.052324,-5.015970,-0.019728,-9.488883,0,0.003473606,0
1786468670.050038,0.000134,0.000167,-0.000317,-0.109619,0.017334,-0.993164,0.999643,0.004437,0.026364,-0.000240,-0.280580,0.007235,-0.959803,0.000017,0.508217,3.021559,-0.014143,-179.721665,32.588640,-179.054866,-5.206331,-0.021902,-9.375174,0,0.003453098,0
1786468670.070208,0.000400,0.000566,-0.000717,-0.110352,0.017090,-0.993408,0.999634,0.004491,0.026693,-0.000244,-0.291397,0.007126,-0.956576,0.000018,0.514379,3.059206,-0.014235,-179.710958,33.882103,-179.058360,-5.393959,-0.023206,-9.258876,0,0.003463035,0
1786468670.090638,0.000533,0.000433,-0.001116,-0.109863,0.017090,-0.993652,0.999625,0.004545,0.027020,-0.000250,-0.302125,0.007034,-0.953242,0.000021,0.520624,3.096776,-0.014552,-179.699214,35.169448,-179.059093,-5.578726,-0.024208,-9.137726,0,0.003481633,0
1786468670.110075,-0.000266,0.000833,-0.000717,-0.110596,0.017334,-0.993896,0.999615,0.004596,0.027350,-0.000253,-0.312824,0.006980,-0.949785,0.000017,0.526452,3.134568,-0.014633,-179.686617,36.457854,-179.054663,-5.760991,-0.024801,-9.013083,0,0.003453326,0
1786468670.129952,0.000933,0.000566,-0.000450,-0.110107,0.017578,-0.993896,0.999606,0.004653,0.027678,-0.000256,-0.323411,0.006949,-0.946233,0.000022,0.533046,3.172194,-0.014554,-179.671385,37.737462,-179.046168,-5.939427,-0.025776,-8.883969,0,0.003450723,0
1786468670.149984,0.000666,0.001232,-0.000583,-0.110596,0.017334,-0.994141,0.999597,0.004709,0.028010,-0.000259,-0.333975,0.006890,-0.942557,0.000024,0.539414,3.210212,-0.014547,-179.657300,39.019188,-179.040976,-6.114557,-0.027335,-8.752139,0,0.003455387,0
1786468670.170467,0.000134,0.000699,-0.000317,-0.110352,0.017090,-0.993408,0.999587,0.004762,0.028339,-0.000260,-0.344485,0.006811,-0.938767,0.000021,0.545441,3.247931,-0.014390,-179.644490,40.299467,-179.038134,-6.286428,-0.028558,-8.615094,0,0.003478153,0
1786468670.190674,0.000267,0.000966,-0.000317,-0.110352,0.018066,-0.993408,0.999577,0.004817,0.028669,-0.000262,-0.354929,0.006847,-0.934868,0.000020,0.551759,3.285767,-0.014215,-179.624924,41.576750,-179.018389,-6.455143,-0.028438,-8.475223,0,0.003483502,0
1786468670.210377,0.000267,0.000966,-0.000850,-0.110107,0.017334,-0.993408,0.999568,0.004870,0.028999,-0.000266,-0.365257,0.006788,-0.930882,0.000020,0.557909,3.323631,-0.014350,-179.609540,42.845342,-179.011168,-6.620105,-0.030854,-8.331916,0,0.003466064,0
1786468670.230559,0.000400,0.000966,-0.000317,-0.110107,0.017822,-0.993408,0.999558,0.004926,0.029329,-0.000268,-0.375519,0.006784,-0.926790,0.000020,0.564259,3.361473,-0.014169,-179.590449,44.111261,-178.995313,-6.780980,-0.031294,-8.185984,0,0.003473330,0
1786468670.250641,0.000933,0.000433,-0.000317,-0.110352,0.017334,-0.993408,0.999548,0.004983,0.029657,-0.000270,-0.385734,0.006717,-0.922586,0.000024,0.570800,3.399029,-0.013993,-179.573724,45.377047,-178.987542,-6.938579,-0.033188,-8.036764,0,0.003474538,0
1786468670.270922,0.000400,0.000167,-0.000051,-0.110352,0.017578,-0.994141,0.999538,0.005037,0.029983,-0.000270,-0.395876,0.006683,-0.918280,0.000022,0.577100,3.436421,-0.013659,-179.554977,46.639584,-178.974157,-7.092544,-0.033752,-7.884892,0,0.003483979,0
1786468670.290203,0.000933,0.000966,-0.000717,-0.109863,0.017334,-0.993652,0.999527,0.005095,0.030313,-0.000274,-0.405853,0.006628,-0.913914,0.000027,0.583648,3.474280,-0.013701,-179.536161,47.887472,-178.963043,-7.242089,-0.035200,-7.728983,0,0.003448439,0
1786468670.310135,-0.000266,0.000833,-0.001116,-0.110352,0.018066,-0.993164,0.999517,0.005147,0.030643,-0.000279,-0.415801,0.006664,-0.909431,0.000023,0.589637,3.512042,-0.013960,-179.510976,49.137712,-178.936781,-7.387586,-0.035316,-7.571546,0,0.003449382,0
1786468670.329888,0.000001,0.000833,-0.000583,-0.110596,0.018066,-0.992432,0.999507,0.005200,0.030972,-0.000282,-0.425688,0.006679,-0.904845,0.000021,0.595788,3.549801,-0.013910,-179.485659,50.386539,-178.912228,-7.529638,-0.036798,-7.410445,0,0.003442500,0
1786468670.349964,0.000400,0.000833,-0.001249,-0.109863,0.017822,-0.994141,0.999496,0.005256,0.031301,-0.000289,-0.435417,0.006655,-0.900204,0.000024,0.602117,3.587569,-0.014239,-179.461179,51.621688,-178.892247,-7.667022,-0.038567,-7.248919,0,0.003451037,0
1786468670.369977,0.000001,0.000566,-0.000450,-0.109863,0.017334,-0.993408,0.999486,0.005308,0.031629,-0.000291,-0.445075,0.006577,-0.895469,0.000021,0.608144,3.625196,-0.014114,-179.440980,52.854198,-178.880590,-7.800132,-0.040011,-7.083775,0,0.003454779,0
1786468670.389946,0.000134,0.000167,-0.000184,-0.109863,0.017334,-0.993652,0.999475,0.005361,0.031956,-0.000292,-0.454648,0.006511,-0.890647,0.000018,0.614256,3.662591,-0.013835,-179.418535,54.082476,-178.865508,-7.929409,-0.040506,-6.917120,0,0.003455747,0
1786468670.409997,0.000800,0.000833,-0.000583,-0.110596,0.017822,-0.994141,0.999464,0.005419,0.032285,-0.000295,-0.464191,0.006507,-0.885711,0.000023,0.620813,3.700358,-0.013772,-179.387728,55.313548,-178.837306,-8.055247,-0.040764,-6.748719,0,0.003459992,0
1786468670.429868,0.000533,0.001099,-0.000317,-0.110352,0.017822,-0.993164,0.999453,0.005475,0.032616,-0.000297,-0.473626,0.006498,-0.880702,0.000023,0.627238,3.738273,-0.013549,-179.356125,56.537439,-178.808324,-8.176782,-0.041945,-6.575746,0,0.003455533,0
1786468670.449871,0.000267,0.001099,-0.000983,-0.109863,0.018311,-0.993652,0.999442,0.005530,0.032946,-0.000302,-0.482925,0.006540,-0.875637,0.000025,0.633604,3.776173,-0.013697,-179.317053,57.750656,-178.767460,-8.293699,-0.042665,-6.402646,0,0.003457764,0
1786468670.469841,0.000800,0.000699,-0.000717,-0.109863,0.017578,-0.992920,0.999431,0.005587,0.033275,-0.000305,-0.492143,0.006483,-0.870490,0.000028,0.640133,3.813866,-0.013700,-179.285423,58.960394,-178.742614,-8.406439,-0.045018,-6.227326,0,0.003458038,0
1786468670.489858,0.000666,0.000833,-0.000717,-0.110596,0.018311,-0.992676,0.999419,0.005644,0.033604,-0.000309,-0.501333,0.006514,-0.865230,0.000031,0.646715,3.851615,-0.013690,-179.241453,60.173636,-178.697768,-8.515827,-0.044962,-6.050756,0,0.003460239,0
1786468670.509902,0.000533,0.000833,-0.000717,-0.110596,0.017578,-0.992676,0.999408,0.005700,0.033934,-0.000313,-0.510431,0.006452,-0.859894,0.000031,0.653070,3.889387,-0.013685,-179.205562,61.382094,-178.668640,-8.621048,-0.047191,-5.871621,0,0.003463053,0
1786468670.529884,0.000267,0.000966,-0.000983,-0.109375,0.018311,-0.993896,0.999396,0.005756,0.034263,-0.000318,-0.519320,0.006482,-0.854556,0.000031,0.659455,3.927206,-0.013816,-179.155956,62.570021,-178.617962,-8.720828,-0.047031,-5.692269,0,0.003462558,0
1786468670.549969,0.000267,0.000566,-0.000450,-0.110596,0.017578,-0.993408,0.999385,0.005810,0.034591,-0.000320,-0.528224,0.006416,-0.849081,0.000029,0.665671,3.964823,-0.013652,-179.114875,63.767719,-178.583505,-8.817649,-0.049095,-5.512133,0,0.003466569,0
1786468670.569988,0.000134,0.000566,-0.000583,-0.109863,0.018555,-0.993896,0.999373,0.005865,0.034919,-0.000323,-0.536968,0.006470,-0.843578,0.000027,0.672029,4.002404,-0.013546,-179.053369,64.951259,-178.518567,-8.909476,-0.048543,-5.329610,0,0.003466767,0
1786468670.590170,0.000267,0.000833,-0.000317,-0.110352,0.018066,-0.993408,0.999361,0.005920,0.035248,-0.000325,-0.545661,0.006450,-0.837981,0.000025,0.678358,4.040154,-0.013288,-178.997034,66.135859,-178.464975,-8.997630,-0.050632,-5.146437,0,0.003473876,0
1786468670.610065,0.000800,0.000833,-0.000583,-0.110107,0.017578,-0.993652,0.999349,0.005977,0.035578,-0.000328,-0.554228,0.006377,-0.832341,0.000029,0.684892,4.077921,-0.013186,-178.942902,67.311015,-178.418290,-9.081358,-0.052060,-4.962017,0,0.003466978,0
1786468670.630337,0.000400,0.000833,-0.000583,-0.109863,0.017334,-0.993408,0.999337,0.006032,0.035907,-0.000331,-0.562688,0.006297,-0.826646,0.000029,0.691158,4.115694,-0.013082,-178.885674,68.479488,-178.368715,-9.160625,-0.052614,-4.776915,0,0.003477899,0
1786468670.650806,0.000267,0.001232,-0.000317,-0.110596,0.017090,-0.993896,0.999325,0.006085,0.036239,-0.000332,-0.571112,0.006208,-0.820849,0.000027,0.697286,4.153704,-0.012824,-178.824205,69.651128,-178.315341,-9.236613,-0.052974,-4.592090,0,0.003494522,0
1786468670.670591,0.000134,0.000966,-0.000450,-0.110352,0.017822,-0.993408,0.999312,0.006139,0.036569,-0.000335,-0.579407,0.006224,-0.815014,0.000025,0.703487,4.191538,-0.012629,-178.735303,70.812881,-178.225847,-9.308070,-0.052268,-4.404151,0,0.003477829,0
1786468670.689862,0.000400,0.000966,-0.000717,-0.110352,0.017822,-0.993408,0.999300,0.006194,0.036898,-0.000338,-0.587570,0.006232,-0.809149,0.000026,0.709830,4.229373,-0.012582,-178.636735,71.964267,-178.127622,-9.375347,-0.053491,-4.216894,0,0.003443386,0
1786468670.709925,0.000800,0.001232,-0.000983,-0.109863,0.017578,-0.993896,0.999287,0.006251,0.037230,-0.000343,-0.595596,0.006205,-0.803260,0.000032,0.716358,4.267368,-0.012685,-178.532593,73.104500,-178.026886,-9.437758,-0.054915,-4.030541,0,0.003451148,0
1786468670.729878,0.000800,0.001099,-0.000583,-0.110352,0.018311,-0.992676,0.999274,0.006309,0.037560,-0.000346,-0.603568,0.006261,-0.797287,0.000034,0.723034,4.305262,-0.012546,-178.393320,74.245403,-177.883930,-9.496853,-0.054855,-3.842997,0,0.003452345,0
1786468670.749866,0.000533,0.001365,-0.000583,-0.110107,0.017578,-0.992920,0.999262,0.006365,0.037892,-0.000349,-0.611418,0.006219,-0.791283,0.000035,0.729422,4.343330,-0.012411,-178.261490,75.377327,-177.756295,-9.551505,-0.057243,-3.655718,0,0.003454710,0
1786468670.769874,0.000533,0.000566,-0.000317,-0.110352,0.017822,-0.992920,0.999249,0.006421,0.038220,-0.000351,-0.619192,0.006211,-0.785215,0.000033,0.735862,4.380931,-0.012121,-178.098056,76.506664,-177.594011,-9.602571,-0.057398,-3.468444,0,0.003457386,0
1786468670.790296,0.000400,0.000566,-0.000717,-0.110107,0.017578,-0.993408,0.999236,0.006476,0.038548,-0.000355,-0.626857,0.006178,-0.779110,0.000034,0.742170,4.418541,-0.012060,-177.913949,77.628894,-177.413171,-9.649295,-0.058550,-3.281246,0,0.003477040,0
1786468670.809971,0.000533,0.000966,-0.000317,-0.110352,0.017334,-0.993408,0.999223,0.006531,0.038878,-0.000357,-0.634419,0.006124,-0.772965,0.000033,0.748518,4.456386,-0.011766,-177.703508,78.744635,-177.207586,-9.692527,-0.059252,-3.093918,0,0.003459967,0
1786468670.829868,-0.000133,0.000833,-0.000583,-0.109619,0.018066,-0.994141,0.999209,0.006584,0.039207,-0.000359,-0.641820,0.006168,-0.766831,0.000029,0.754639,4.494129,-0.011609,-177.411768,79.844798,-176.912448,-9.730911,-0.058765,-2.907499,0,0.003456582,0
1786468670.849973,0.000533,0.001099,-0.000450,-0.109863,0.017822,-0.993164,0.999196,0.006640,0.039538,-0.000362,-0.649145,0.006167,-0.760640,0.000030,0.761092,4.532032,-0.011374,-177.068153,80.942400,-176.569357,-9.766138,-0.060391,-2.721264,0,0.003462909,0
1786468670.869900,0.000267,0.000566,-0.000450,-0.110596,0.018066,-0.993652,0.999183,0.006695,0.039865,-0.000364,-0.656415,0.006191,-0.754374,0.000029,0.767417,4.569625,-0.011137,-176.617173,82.040142,-176.116690,-9.798252,-0.061020,-2.536102,0,0.003460106,0
1786468670.890008,0.000666,0.000966,-0.000450,-0.110596,0.017822,-0.992920,0.999169,0.006752,0.040195,-0.000366,-0.663588,0.006178,-0.748073,0.000031,0.773926,4.607455,-0.010897,-176.046420,83.131767,-175.547421,-9.826052,-0.062444,-2.349222,0,0.003465706,0
1786468670.910448,0.000533,0.000300,-0.000850,-0.110107,0.017822,-0.992676,0.999155,0.006808,0.040522,-0.000371,-0.670646,0.006170,-0.741752,0.000034,0.780355,4.644903,-0.010886,-175.262556,84.213987,-174.764671,-9.849700,-0.063246,-2.163085,0,0.003484087,0
1786468670.931099,0.000533,0.001099,-0.000717,-0.110352,0.018066,-0.993164,0.999142,0.006864,0.040852,-0.000375,-0.677623,0.006188,-0.735383,0.000035,0.786831,4.682800,-0.010785,-174.099508,85.291371,-173.600532,-9.870349,-0.063769,-1.978985,0,0.003507000,0
1786468670.950132,0.000400,0.000566,-0.000717,-0.110352,0.017578,-0.994629,0.999128,0.006919,0.041180,-0.000378,-0.684451,0.006143,-0.729033,0.000036,0.793139,4.720408,-0.010691,-172.356686,86.352424,-171.861535,-9.887233,-0.065346,-1.795756,0,0.003455135,0
1786468670.970088,0.000533,0.000433,-0.000583,-0.110107,0.017334,-0.993652,0.999114,0.006975,0.041507,-0.000381,-0.691168,0.006085,-0.722668,0.000036,0.799491,4.757944,-0.010521,-169.247383,87.399624,-168.757100,-9.900228,-0.065796,-1.612295,0,0.003455433,0
1786468670.989974,0.000800,0.000833,-0.000051,-0.110596,0.018311,-0.992676,0.999100,0.007033,0.041836,-0.000382,-0.697816,0.006150,-0.716251,0.000035,0.806192,4.795676,-0.010023,-161.700746,88.424323,-161.205247,-9.910487,-0.064744,-1.430097,0,0.003452695,0
1786468671.010156,0.000533,0.000699,-0.000583,-0.110840,0.017578,-0.993652,0.999085,0.007088,0.042165,-0.000385,-0.704376,0.006114,-0.709800,0.000036,0.812572,4.833359,-0.009841,-131.653711,89.335537,-131.161203,-9.917126,-0.067236,-1.249897,0,0.003463268,0
1786468671.030456,0.000666,0.000966,-0.000583,-0.110596,0.018555,-0.993896,0.999071,0.007146,0.042494,-0.000388,-0.710826,0.006196,-0.703341,0.000038,0.819219,4.871163,-0.009636,-40.036995,89.210727,-39.538016,-9.919933,-0.066565,-1.069699,0,0.003476288,0
1786468671.050075,0.000533,0.000300,-0.000450,-0.109863,0.017578,-0.993652,0.999057,0.007202,0.042821,-0.000390,-0.717122,0.006144,-0.696921,0.000037,0.825638,4.908610,-0.009369,-17.261238,88.288178,-16.766365,-9.918932,-0.069436,-0.890248,0,0.003457028,0
1786468671.070626,0.000800,0.000566,-0.000717,-0.110107,0.018066,-0.993896,0.999042,0.007260,0.043149,-0.000394,-0.723346,0.006161,-0.690459,0.000041,0.832281,4.946198,-0.009242,-10.927250,87.288015,-10.431163,-9.915731,-0.069030,-0.714158,0,0.003482294,0
1786468671.090046,0.000800,0.001099,-0.000717,-0.110352,0.017334,-0.993408,0.999027,0.007316,0.043479,-0.000398,-0.729462,0.006092,-0.683994,0.000043,0.838782,4.984114,-0.009119,-7.929693,86.281799,-7.439262,-9.909372,-0.070784,-0.537868,0,0.003453060,0
1786468671.110117,0.000400,0.001232,-0.000850,-0.109863,0.017334,-0.994141,0.999013,0.007371,0.043810,-0.000402,-0.735449,0.006047,-0.677553,0.000044,0.845063,5.022105,-0.009065,-6.248391,85.281625,-5.761558,-9.899227,-0.070593,-0.364293,0,0.003458802,0
1786468671.130161,-0.000133,0.000833,-0.000450,-0.110352,0.018066,-0.993408,0.998998,0.007424,0.044139,-0.000404,-0.741373,0.006100,-0.671065,0.000039,0.851181,5.059843,-0.008771,-5.235538,84.278997,-4.743810,-9.887118,-0.069852,-0.191413,0,0.003461975,0
1786468671.150106,0.000134,0.000566,-0.000317,-0.109863,0.018066,-0.993408,0.998983,0.007479,0.044467,-0.000406,-0.747172,0.006135,-0.664602,0.000035,0.857473,5.097424,-0.008397,-4.521273,83.286935,-4.026171,-9.871011,-0.071227,-0.019693,0,0.003460142,0
1786468671.170263,0.000533,0.000966,-0.000983,-0.110596,0.017822,-0.992920,0.998968,0.007535,0.044797,-0.000411,-0.752918,0.006133,-0.658086,0.000039,0.863894,5.135251,-0.008404,-3.971397,82.293790,-3.476482,-9.853358,-0.072757,0.150085,0,0.003467806,0
1786468671.190284,0.000400,0.000433,-0.000184,-0.110107,0.018311,-0.993408,0.998952,0.007591,0.045124,-0.000412,-0.758540,0.006184,-0.651597,0.000036,0.870384,5.172748,-0.007943,-3.578644,81.311582,-3.079090,-9.831521,-0.072821,0.318808,0,0.003467805,0
1786468671.210920,0.000800,0.000566,-0.000850,-0.109863,0.017334,-0.993652,0.998937,0.007648,0.045451,-0.000416,-0.764066,0.006110,-0.645109,0.000041,0.876898,5.210355,-0.007875,-3.206637,80.336803,-2.713144,-9.807303,-0.075310,0.485255,0,0.003494058,0
1786468671.230137,0.001066,0.000300,-0.000450,-0.109863,0.018066,-0.993408,0.998922,0.007707,0.045778,-0.000419,-0.769474,0.006139,-0.638649,0.000043,0.883721,5.247783,-0.007562,-2.953769,79.372422,-2.457663,-9.780683,-0.074094,0.650629,0,0.003453280,0
1786468671.250071,0.000400,0.000966,-0.000583,-0.110596,0.018066,-0.992676,0.998906,0.007763,0.046107,-0.000422,-0.774823,0.006166,-0.632148,0.000043,0.890136,5.285596,-0.007319,-2.740870,78.408624,-2.242189,-9.752355,-0.075260,0.813940,0,0.003453124,0
1786468671.270987,0.000533,0.000699,-0.000184,-0.109863,0.017334,-0.993408,0.998891,0.007818,0.046436,-0.000423,-0.780062,0.006099,-0.625672,0.000040,0.896538,5.323272,-0.006854,-2.524236,77.455110,-2.030351,-9.719822,-0.076938,0.975325,0,0.003494928,0
1786468671.291868,0.000267,0.000966,-0.000051,-0.111084,0.018066,-0.993652,0.998875,0.007873,0.046765,-0.000423,-0.785281,0.006138,-0.619109,0.000036,0.902892,5.361082,-0.006297,-2.376981,76.494769,-1.879079,-9.686924,-0.075776,1.134863,0,0.003525098,0
1786468671.310750,0.000400,0.000833,-0.000583,-0.110840,0.017090,-0.993408,0.998859,0.007927,0.047095,-0.000426,-0.790359,0.006059,-0.612614,0.000037,0.909127,5.398847,-0.006059,-2.209997,75.550929,-1.718126,-9.649614,-0.078014,1.295441,0,0.003462138,0
1786468671.330170,0.000533,0.000966,-0.000450,-0.109863,0.017822,-0.992676,0.998843,0.007983,0.047424,-0.000429,-0.795286,0.006089,-0.606203,0.000037,0.915606,5.436662,-0.005724,-2.103204,74.624767,-1.608329,-9.609616,-0.076627,1.453111,0,0.003437967,0
1786468671.350152,0.000533,0.000966,-0.000717,-0.109619,0.017822,-0.993408,0.998827,0.008040,0.047754,-0.000433,-0.800111,0.006111,-0.599820,0.000039,0.922079,5.474477,-0.005537,-2.007431,73.708262,-1.510397,-9.568569,-0.077742,1.605675,0,0.003443574,0
1786468671.370112,0.000533,0.000833,-0.000317,-0.110352,0.017578,-0.993652,0.998810,0.008095,0.048083,-0.000434,-0.804881,0.006098,-0.593405,0.000039,0.928509,5.512222,-0.005124,-1.910424,72.792591,-1.413837,-9.526483,-0.078852,1.756486,0,0.003446937,0
1786468671.390303,-0.000133,0.001632,-0.000717,-0.110352,0.017334,-0.992920,0.998794,0.008147,0.048416,-0.000438,-0.809566,0.006070,-0.586997,0.000037,0.934495,5.550436,-0.004933,-1.819391,71.883366,-1.324380,-9.481350,-0.079557,1.907266,0,0.003459281,0
1786468671.410483,0.001066,0.001632,-0.000317,-0.110352,0.017578,-0.993652,0.998777,0.008206,0.048749,-0.000440,-0.814164,0.006071,-0.580603,0.000040,0.941232,5.588638,-0.004504,-1.746487,70.981277,-1.250971,-9.434125,-0.079265,2.054948,0,0.003468158,0
1786468671.431061,0.000533,0.000300,-0.000583,-0.110596,0.017334,-0.993164,0.998761,0.008261,0.049075,-0.000443,-0.818706,0.006051,-0.574181,0.000041,0.947600,5.626087,-0.004241,-1.674277,70.080259,-1.179882,-9.385107,-0.080174,2.202149,0,0.003491859,0
1786468671.450531,0.000400,0.000433,-0.000583,-0.110107,0.018311,-0.993408,0.998744,0.008317,0.049402,-0.000446,-0.823122,0.006150,-0.567831,0.000041,0.954079,5.663582,-0.003955,-1.640985,69.193955,-1.137698,-9.333210,-0.079422,2.347389,0,0.003462362,0
1786468671.470835,0.000400,0.000566,-0.000717,-0.110107,0.017822,-0.993652,0.998728,0.008373,0.049730,-0.000449,-0.827457,0.006165,-0.561495,0.000043,0.960466,5.701168,-0.003748,-1.589522,68.314463,-1.084456,-9.280418,-0.082069,2.489381,0,0.003475765,0
1786468671.490091,0.000533,0.000699,-0.000583,-0.110596,0.018066,-0.993408,0.998711,0.008429,0.050058,-0.000453,-0.831710,0.006203,-0.555176,0.000043,0.966967,5.738823,-0.003457,-1.548469,67.441724,-1.039527,-9.226349,-0.082550,2.629990,0,0.003441173,0
1786468671.510278,0.000933,0.000433,-0.000583,-0.110107,0.017334,-0.993408,0.998694,0.008487,0.050385,-0.000456,-0.835867,0.006146,-0.548898,0.000046,0.973583,5.776345,-0.003175,-1.488552,66.579195,-0.983779,-9.169574,-0.084397,2.768481,0,0.003454804,0
1786468671.530128,0.000134,0.000433,-0.000317,-0.110596,0.017578,-0.992676,0.998677,0.008540,0.050712,-0.000457,-0.839961,0.006143,-0.542612,0.000043,0.979788,5.813858,-0.002732,-1.444623,65.719749,-0.939018,-9.112386,-0.083761,2.905221,0,0.003450684,0
1786468671.550096,0.000533,0.000833,-0.000717,-0.110352,0.017822,-0.993896,0.998659,0.008596,0.051041,-0.000461,-0.843957,0.006169,-0.536375,0.000045,0.986248,5.851595,-0.002507,-1.411457,64.871112,-0.903093,-9.052674,-0.083960,3.038548,0,0.003452632,0
1786468671.569945,0.000400,0.000300,-0.000983,-0.110596,0.017822,-0.993408,0.998642,0.008652,0.051367,-0.000466,-0.847884,0.006191,-0.530145,0.000048,0.992611,5.889031,-0.002437,-1.380207,64.027330,-0.869415,-8.992149,-0.084932,3.171151,0,0.003449001,0
1786468671.589989,0.000267,0.001498,-0.000717,-0.109863,0.017334,-0.993652,0.998625,0.008706,0.051699,-0.000470,-0.851699,0.006152,-0.523995,0.000048,0.998851,5.927161,-0.002204,-1.338241,63.198169,-0.829778,-8.929210,-0.086252,3.301052,0,0.003454620,0
1786468671.609976,0.000800,0.001099,-0.000983,-0.110107,0.018555,-0.993164,0.998607,0.008764,0.052029,-0.000475,-0.855450,0.006268,-0.517848,0.000053,1.005583,5.965031,-0.002103,-1.331825,62.372966,-0.813267,-8.866327,-0.084853,3.428827,0,0.003456387,0
1786468671.630288,0.000666,0.000966,-0.000450,-0.110596,0.017822,-0.993652,0.998589,0.008821,0.052359,-0.000477,-0.859145,0.006262,-0.511694,0.000053,1.012133,6.002841,-0.001706,-1.300706,61.550562,-0.781653,-8.802195,-0.087927,3.553985,0,0.003471574,0
1786468671.650586,0.000267,0.000566,-0.000051,-0.110107,0.018066,-0.993164,0.998572,0.008876,0.052686,-0.000478,-0.862754,0.006293,-0.505584,0.000047,1.018535,6.040409,-0.001074,-1.278453,60.737509,-0.755452,-8.735484,-0.088000,3.678851,0,0.003482472,0
1786468671.670333,0.000533,0.000833,-0.000450,-0.110107,0.017090,-0.993896,0.998554,0.008932,0.053015,-0.000480,-0.866277,0.006203,-0.499526,0.000047,1.024900,6.078161,-0.000682,-1.234532,59.934629,-0.718075,-8.668326,-0.089924,3.800011,0,0.003467150,0
1786468671.690488,0.000267,0.000699,-0.000850,-0.109863,0.018555,-0.993652,0.998536,0.008987,0.053343,-0.000484,-0.869721,0.006318,-0.493503,0.000049,1.031345,6.115797,-0.000491,-1.232971,59.139613,-0.706030,-8.600038,-0.087451,3.919778,0,0.003472986,0
1786468671.710617,0.000800,0.000433,-0.000450,-0.110596,0.018311,-0.993652,0.998518,0.009046,0.053670,-0.000487,-0.873118,0.006365,-0.487467,0.000050,1.038058,6.153287,-0.000074,-1.218955,58.345956,-0.687045,-8.531736,-0.089963,4.037130,0,0.003476294,0
1786468671.730274,0.000533,0.000966,-0.000317,-0.110596,0.017090,-0.993652,0.998499,0.009101,0.053999,-0.000489,-0.876432,0.006262,-0.481484,0.000048,1.044423,6.191113,0.000407,-1.177473,57.562431,-0.653150,-8.461281,-0.092427,4.153206,0,0.003458683,0
1786468671.750225,0.000800,0.000833,-0.000583,-0.110596,0.017822,-0.993652,0.998481,0.009158,0.054328,-0.000492,-0.879675,0.006279,-0.475534,0.000050,1.051048,6.228846,0.000750,-1.160534,56.785960,-0.633881,-8.390090,-0.090319,4.266992,0,0.003457927,0
1786468671.770260,0.000800,0.000966,-0.000317,-0.110107,0.017578,-0.993652,0.998463,0.009215,0.054657,-0.000494,-0.882832,0.006265,-0.469647,0.000050,1.057665,6.266656,0.001250,-1.138980,56.020513,-0.612381,-8.317552,-0.091224,4.378695,0,0.003460948,0
1786468671.790004,0.000800,0.000966,-0.000583,-0.110352,0.017334,-0.993408,0.998444,0.009272,0.054987,-0.000497,-0.885925,0.006233,-0.463787,0.000052,1.064219,6.304476,0.001596,-1.115306,55.261356,-0.590550,-8.245277,-0.091658,4.488126,0,0.003450828,0
1786468671.809971,0.000001,0.000433,-0.000717,-0.110107,0.017090,-0.993652,0.998425,0.009325,0.055314,-0.000500,-0.888944,0.006191,-0.457973,0.000051,1.070273,6.341998,0.001859,-1.091018,54.510813,-0.568670,-8.171619,-0.091833,4.595289,0,0.003452655,0
1786468671.830085,0.000666,0.001099,-0.000717,-0.110596,0.017822,-0.992920,0.998406,0.009381,0.055644,-0.000504,-0.891913,0.006249,-0.452164,0.000054,1.076819,6.379882,0.002146,-1.085149,53.763246,-0.557003,-8.098268,-0.090657,4.701061,0,0.003460344,0
1786468671.850114,0.000267,0.000433,-0.000583,-0.110107,0.017578,-0.993652,0.998388,0.009436,0.055971,-0.000507,-0.894803,0.006264,-0.446418,0.000053,1.083117,6.417388,0.002503,-1.072486,53.026284,-0.541848,-8.022719,-0.092305,4.804158,0,0.003462498,0
1786468671.870340,0.000933,0.000433,-0.000317,-0.110596,0.017578,-0.993408,0.998369,0.009494,0.056297,-0.000509,-0.897645,0.006274,-0.440675,0.000053,1.089802,6.454893,0.003017,-1.059525,52.292035,-0.526928,-7.947968,-0.092797,4.905702,0,0.003472551,0
1786468671.890344,0.000800,0.000833,-0.000717,-0.111084,0.017578,-0.993408,0.998350,0.009551,0.056626,-0.000513,-0.900433,0.006285,-0.434949,0.000056,1.096374,6.492632,0.003308,-1.047794,51.562253,-0.513245,-7.872251,-0.093387,5.005598,0,0.003470625,0
1786468671.910014,0.000666,0.000566,-0.000717,-0.110352,0.017822,-0.992920,0.998330,0.009607,0.056954,-0.000517,-0.903136,0.006328,-0.429308,0.000058,1.102931,6.530209,0.003607,-1.041812,50.845524,-0.502558,-7.794434,-0.093727,5.104500,0,0.003454957,0
1786468671.930150,0.000001,0.000833,-0.000450,-0.110596,0.017578,-0.993652,0.998311,0.009660,0.057282,-0.000519,-0.905782,0.006335,-0.423696,0.000055,1.109079,6.567942,0.004061,-1.030046,50.134610,-0.488778,-7.717828,-0.095113,5.199361,0,0.003463002,0
1786468671.949975,0.000533,0.000833,-0.000450,-0.109863,0.017822,-0.993652,0.998292,0.009717,0.057611,-0.000521,-0.908347,0.006370,-0.418170,0.000055,1.115592,6.605665,0.004526,-1.023634,49.436446,-0.478121,-7.639656,-0.095218,5.293282,0,0.003455816,0
1786468671.970581,0.000800,0.000433,-0.000583,-0.109619,0.017822,-0.993652,0.998272,0.009774,0.057938,-0.000525,-0.910856,0.006396,-0.412675,0.000057,1.122256,6.643160,0.004915,-1.016522,48.744294,-0.467653,-7.562186,-0.096128,5.384621,0,0.003483686,0
1786468671.990026,0.001199,0.001365,-0.000717,-0.111084,0.018555,-0.993408,0.998252,0.009835,0.058269,-0.000528,-0.913331,0.006501,-0.407166,0.000061,1.129223,6.681175,0.005251,-1.022163,48.052223,-0.463255,-7.486158,-0.096161,5.474298,0,0.003455206,0
1786468672.010159,0.000400,0.001099,-0.000717,-0.110352,0.018066,-0.993408,0.998232,0.009891,0.058599,-0.000532,-0.915733,0.006525,-0.401733,0.000061,1.135674,6.719048,0.005582,-1.015231,47.371535,-0.453049,-7.406725,-0.098967,5.562912,0,0.003463076,0
1786468672.030106,0.000267,0.000966,-0.000450,-0.110352,0.018066,-0.993652,0.998213,0.009946,0.058928,-0.000534,-0.918079,0.006545,-0.396344,0.000060,1.142068,6.756841,0.006069,-1.008012,46.698085,-0.442588,-7.328291,-0.099678,5.648906,0,0.003461065,0
1786468672.050523,0.000400,0.000966,-0.000184,-0.110107,0.017578,-0.994141,0.998192,0.010001,0.059257,-0.000536,-0.920366,0.006504,-0.391003,0.000056,1.148485,6.794642,0.006705,-0.991749,46.032306,-0.428328,-7.249465,-0.100756,5.732795,0,0.003479597,0
1786468672.070308,0.000400,0.000699,-0.000583,-0.109863,0.017578,-0.993408,0.998172,0.010056,0.059585,-0.000539,-0.922594,0.006484,-0.385718,0.000057,1.154882,6.832294,0.007113,-0.979391,45.375202,-0.416487,-7.170521,-0.100331,5.816093,0,0.003466583,0
1786468672.090834,0.000001,0.000566,-0.000450,-0.109863,0.017822,-0.993408,0.998152,0.010110,0.059913,-0.000541,-0.924774,0.006505,-0.380461,0.000055,1.161099,6.869862,0.007605,-0.973653,44.723062,-0.407330,-7.091936,-0.100031,5.896648,0,0.003488451,0
1786468672.110079,0.000533,0.000699,-0.000717,-0.109863,0.018311,-0.993164,0.998132,0.010167,0.060240,-0.000545,-0.926892,0.006580,-0.375270,0.000057,1.167682,6.907495,0.007959,-0.976337,44.080551,-0.402276,-7.013063,-0.100155,5.975903,0,0.003450247,0
1786468672.130614,0.000267,0.000566,-0.000717,-0.110596,0.017334,-0.994141,0.998112,0.010221,0.060568,-0.000548,-0.928979,0.006519,-0.370075,0.000058,1.173938,6.945080,0.008294,-0.959129,43.439082,-0.389227,-6.935188,-0.102807,6.051894,0,0.003476450,0
1786468672.150408,0.000800,0.000833,-0.000983,-0.109863,0.018311,-0.992188,0.998091,0.010279,0.060896,-0.000553,-0.931001,0.006599,-0.364958,0.000063,1.180656,6.982792,0.008504,-0.963280,42.808560,-0.385357,-6.855167,-0.100943,6.129804,0,0.003464619,0
1786468672.171082,0.000800,0.000699,-0.000583,-0.109863,0.017578,-0.993896,0.998070,0.010337,0.061224,-0.000557,-0.932977,0.006567,-0.359877,0.000065,1.187288,7.020442,0.008933,-0.951069,42.183969,-0.374780,-6.776360,-0.103375,6.201886,0,0.003493293,0
1786468672.191049,0.000800,0.000566,-0.000317,-0.109375,0.017090,-0.993408,0.998050,0.010393,0.061551,-0.000558,-0.934894,0.006492,-0.354868,0.000064,1.193875,7.058023,0.009511,-0.933110,41.569372,-0.361973,-6.697002,-0.103493,6.274654,0,0.003484672,0
1786468672.210304,0.000666,0.000566,-0.000450,-0.110352,0.017822,-0.993408,0.998029,0.010450,0.061879,-0.000561,-0.936774,0.006534,-0.349873,0.000063,1.200468,7.095589,0.010027,-0.932106,40.957866,-0.355851,-6.619624,-0.101663,6.344929,0,0.003447807,0
1786468672.230345,0.000800,0.000966,-0.000583,-0.110596,0.017822,-0.994141,0.998008,0.010508,0.062208,-0.000564,-0.938611,0.006564,-0.344916,0.000065,1.207125,7.133387,0.010475,-0.929834,40.352095,-0.349582,-6.541230,-0.102652,6.413188,0,0.003453587,0
1786468672.250313,0.000134,0.001232,-0.000450,-0.109863,0.018066,-0.993408,0.997987,0.010563,0.062538,-0.000566,-0.940389,0.006625,-0.340037,0.000063,1.213468,7.171325,0.011014,-0.931911,39.757005,-0.344629,-6.461853,-0.103291,6.481456,0,0.003454811,0
1786468672.270324,0.000800,0.000966,-0.000450,-0.109863,0.017822,-0.993652,0.997965,0.010620,0.062867,-0.000569,-0.942124,0.006638,-0.335200,0.000063,1.220156,7.209117,0.011550,-0.927481,39.168183,-0.337694,-6.383826,-0.104771,6.546802,0,0.003457565,0
1786468672.290486,0.000533,0.000966,-0.000583,-0.110107,0.017090,-0.993896,0.997944,0.010676,0.063197,-0.000572,-0.943820,0.006565,-0.330394,0.000064,1.226562,7.246930,0.011997,-0.911438,38.584167,-0.326853,-6.306239,-0.106013,6.610635,0,0.003466069,0
1786468672.310539,0.000933,0.000966,-0.000717,-0.110352,0.017822,-0.993652,0.997922,0.010734,0.063526,-0.000576,-0.945479,0.006605,-0.325616,0.000067,1.233296,7.284726,0.012386,-0.911422,38.004640,-0.322050,-6.228638,-0.104103,6.673668,0,0.003467830,0
1786468672.330348,0.000400,0.000566,-0.000717,-0.110596,0.017822,-0.993652,0.997901,0.010789,0.063853,-0.000580,-0.947099,0.006641,-0.320873,0.000069,1.239720,7.322294,0.012774,-0.910790,37.430349,-0.316869,-6.150945,-0.105159,6.735199,0,0.003458768,0
1786468672.350294,0.000533,0.000833,-0.000717,-0.110352,0.018066,-0.993408,0.997879,0.010846,0.064181,-0.000583,-0.948673,0.006699,-0.316189,0.000070,1.246265,7.360007,0.013174,-0.913422,36.864047,-0.312921,-6.072963,-0.105764,6.795560,0,0.003457781,0
1786468672.370361,0.000800,0.001099,-0.001116,-0.110107,0.017578,-0.992920,0.997857,0.010903,0.064511,-0.000589,-0.950203,0.006685,-0.311559,0.000076,1.252866,7.397888,0.013343,-0.906602,36.305346,-0.306437,-5.995476,-0.107547,6.854556,0,0.003462194,0
1786468672.390375,0.000267,0.000966,-0.000317,-0.110107,0.017334,-0.993896,0.997835,0.010957,0.064841,-0.000591,-0.951693,0.006651,-0.306978,0.000073,1.259186,7.435689,0.013971,-0.896921,35.753390,-0.298100,-5.918646,-0.107748,6.910617,0,0.003463281,0
1786468672.411252,0.000933,0.000966,-0.001116,-0.110352,0.017578,-0.993652,0.997813,0.011015,0.065170,-0.000597,-0.953155,0.006658,-0.302408,0.000080,1.265858,7.473494,0.014146,-0.893457,35.203578,-0.293035,-5.842469,-0.107022,6.966461,0,0.003500930,0
1786468672.430234,0.000267,0.000433,-0.000450,-0.110352,0.017334,-0.993896,0.997791,0.011069,0.065496,-0.000599,-0.954571,0.006642,-0.297909,0.000077,1.272163,7.510991,0.014698,-0.886596,34.663085,-0.285967,-5.765718,-0.107666,7.020921,0,0.003448405,0
1786468672.450148,0.000800,0.000433,-0.000583,-0.110840,0.018311,-0.994141,0.997769,0.011127,0.065823,-0.000602,-0.955956,0.006749,-0.293431,0.000078,1.278901,7.548467,0.015195,-0.896337,34.125949,-0.284481,-5.690342,-0.106478,7.073677,0,0.003448591,0
1786468672.470125,0.000533,0.000833,-0.000717,-0.110596,0.017822,-0.993652,0.997747,0.011184,0.066151,-0.000606,-0.957302,0.006772,-0.289011,0.000079,1.285411,7.586184,0.015616,-0.895042,33.596462,-0.279701,-5.614276,-0.109207,7.126044,0,0.003451430,0
1786468672.490340,0.001199,0.000966,-0.000583,-0.110107,0.017578,-0.993408,0.997724,0.011243,0.066480,-0.000609,-0.958607,0.006759,-0.284651,0.000081,1.292288,7.623979,0.016116,-0.889257,33.074982,-0.273760,-5.538532,-0.109930,7.176785,0,0.003463710,0
1786468672.510056,0.000533,0.000833,-0.000317,-0.110352,0.017578,-0.993652,0.997702,0.011299,0.066808,-0.000611,-0.959880,0.006759,-0.280331,0.000079,1.298801,7.661696,0.016773,-0.885080,32.558948,-0.267885,-5.464157,-0.109948,7.225630,0,0.003451722,0
1786468672.530201,0.000001,0.001099,-0.000717,-0.109375,0.017090,-0.992920,0.997679,0.011352,0.067138,-0.000615,-0.961107,0.006711,-0.276094,0.000079,1.304930,7.699578,0.017199,-0.875022,32.053451,-0.260764,-5.388974,-0.110705,7.274219,0,0.003460931,0
1786468672.550007,0.000533,0.000966,-0.000583,-0.110596,0.017334,-0.993164,0.997656,0.011407,0.067467,-0.000618,-0.962316,0.006707,-0.271850,0.000079,1.311381,7.737380,0.017706,-0.870796,31.547786,-0.255411,-5.317020,-0.109613,7.320267,0,0.003453432,0
1786468672.569929,-0.000266,0.000833,-0.000450,-0.110352,0.017822,-0.993164,0.997633,0.011460,0.067796,-0.000620,-0.963490,0.006774,-0.267659,0.000076,1.317465,7.775090,0.018303,-0.875726,31.049044,-0.252342,-5.243174,-0.109322,7.365907,0,0.003452758,0
1786468672.589904,0.000800,0.000833,-0.000717,-0.109863,0.018066,-0.993652,0.997610,0.011517,0.068124,-0.000624,-0.964626,0.006847,-0.263534,0.000079,1.324188,7.812796,0.018757,-0.881752,30.558751,-0.250239,-5.169720,-0.110324,7.409767,0,0.003454472,0
1786468672.609962,0.000267,0.000966,-0.000717,-0.111084,0.017822,-0.993408,0.997587,0.011572,0.068453,-0.000628,-0.965746,0.006876,-0.259399,0.000080,1.330541,7.850589,0.019208,-0.882006,30.067860,-0.246366,-5.098861,-0.112201,7.452968,0,0.003459311,0
1786468672.630271,0.000533,0.000699,-0.000583,-0.110107,0.017822,-0.992920,0.997564,0.011628,0.068781,-0.000631,-0.966827,0.006900,-0.255337,0.000080,1.337081,7.888223,0.019740,-0.881861,29.586264,-0.242414,-5.025285,-0.112832,7.495900,0,0.003473673,0
1786468672.650058,0.000800,0.001099,-0.000184,-0.109375,0.017578,-0.993408,0.997540,0.011686,0.069110,-0.000632,-0.967868,0.006890,-0.251363,0.000078,1.343790,7.926083,0.020510,-0.877301,29.115443,-0.237057,-4.953084,-0.113602,7.536385,0,0.003462217,0
1786468672.670095,0.000533,0.000566,-0.000983,-0.110352,0.018066,-0.993652,0.997517,0.011743,0.069437,-0.000637,-0.968893,0.006949,-0.247384,0.000082,1.350332,7.963640,0.020822,-0.881777,28.644647,-0.234858,-4.883706,-0.113159,7.575710,0,0.003464273,0
1786468672.690887,0.000400,0.000566,-0.000717,-0.110352,0.017578,-0.993896,0.997494,0.011798,0.069764,-0.000641,-0.969893,0.006934,-0.243435,0.000084,1.356747,8.001205,0.021282,-0.876991,28.177835,-0.230016,-4.813128,-0.114912,7.614381,0,0.003498091,0
1786468672.710237,0.000400,0.000833,-0.000717,-0.110596,0.017822,-0.992920,0.997470,0.011853,0.070093,-0.000644,-0.970863,0.006961,-0.239533,0.000085,1.363194,8.038917,0.021755,-0.877473,27.717151,-0.226509,-4.743111,-0.114530,7.653373,0,0.003461914,0
1786468672.730263,0.000533,0.000566,-0.000717,-0.110352,0.017578,-0.993652,0.997446,0.011909,0.070420,-0.000648,-0.971804,0.006952,-0.235686,0.000087,1.369688,8.076482,0.022223,-0.873614,27.263272,-0.222070,-4.673148,-0.115388,7.689625,0,0.003463540,0
1786468672.750155,0.000533,0.000566,-0.000717,-0.110352,0.017334,-0.993896,0.997422,0.011965,0.070747,-0.000652,-0.972719,0.006921,-0.231885,0.000088,1.376148,8.114051,0.022691,-0.867005,26.815284,-0.217052,-4.604211,-0.115593,7.725258,0,0.003459092,0
1786468672.770245,0.000533,0.000433,-0.000983,-0.110352,0.017578,-0.993652,0.997398,0.012021,0.071073,-0.000657,-0.973608,0.006934,-0.228120,0.000092,1.382623,8.151542,0.023013,-0.866203,26.372051,-0.213780,-4.535869,-0.114893,7.760395,0,0.003464151,0
1786468672.790167,0.000800,0.000566,-0.000583,-0.110107,0.018066,-0.993652,0.997374,0.012079,0.071400,-0.000660,-0.974470,0.007006,-0.224409,0.000093,1.389362,8.189091,0.023583,-0.872634,25.935501,-0.211850,-4.467789,-0.114713,7.794355,0,0.003460826,0
1786468672.810137,0.000666,0.001099,-0.001116,-0.109863,0.017578,-0.992676,0.997350,0.012135,0.071729,-0.000666,-0.975305,0.007004,-0.220752,0.000098,1.395918,8.226962,0.023847,-0.870139,25.505648,-0.208451,-4.400546,-0.116757,7.828214,0,0.003460348,0
1786468672.830134,0.000400,0.000699,-0.000583,-0.111328,0.017822,-0.993652,0.997326,0.012190,0.072057,-0.000669,-0.976129,0.007036,-0.217079,0.000098,1.402366,8.264596,0.024418,-0.871576,25.074305,-0.205270,-4.335637,-0.116614,7.859214,0,0.003461150,0
1786468672.850021,0.000533,0.000433,-0.000184,-0.110596,0.018066,-0.994385,0.997301,0.012247,0.072383,-0.000670,-0.976922,0.007090,-0.213479,0.000094,1.408978,8.302063,0.025228,-0.875875,24.651784,-0.202395,-4.268084,-0.117014,7.890048,0,0.003457050,0
1786468672.870181,0.000800,0.000966,-0.000450,-0.109863,0.017822,-0.993408,0.997277,0.012305,0.072712,-0.000673,-0.977687,0.007104,-0.209945,0.000093,1.415705,8.339841,0.025894,-0.875363,24.237454,-0.198920,-4.201810,-0.118363,7.921384,0,0.003465615,0
1786468672.890090,0.000533,0.000699,-0.000317,-0.110107,0.017578,-0.993652,0.997252,0.012361,0.073039,-0.000675,-0.978433,0.007090,-0.206443,0.000091,1.422251,8.377472,0.026631,-0.871371,23.827218,-0.194549,-4.137424,-0.119013,7.950517,0,0.003461349,0
1786468672.910076,0.000267,0.000566,-0.000717,-0.110107,0.017822,-0.992676,0.997228,0.012416,0.073366,-0.000678,-0.979158,0.007119,-0.202976,0.000093,1.428647,8.415025,0.027145,-0.872883,23.421303,-0.191780,-4.073250,-0.118659,7.980115,0,0.003461463,0
1786468672.930106,0.000800,0.000433,-0.000850,-0.110107,0.017822,-0.993652,0.997203,0.012474,0.073692,-0.000683,-0.979862,0.007138,-0.199551,0.000096,1.435337,8.452504,0.027584,-0.873312,23.020620,-0.189087,-4.009551,-0.119233,8.006995,0,0.003463356,0
1786468672.951179,0.000666,0.000966,-0.000717,-0.110840,0.017334,-0.993652,0.997178,0.012530,0.074021,-0.000687,-0.980553,0.007096,-0.196126,0.000098,1.441878,8.490300,0.028099,-0.866189,22.620261,-0.184744,-3.947343,-0.120210,8.033995,0,0.003509433,0
1786468672.970689,0.000800,0.000566,-0.000450,-0.110107,0.017578,-0.992920,0.997153,0.012587,0.074348,-0.000689,-0.981218,0.007103,-0.192773,0.000098,1.448571,8.527854,0.028775,-0.865121,22.228637,-0.181383,-3.883346,-0.119206,8.061364,0,0.003477255,0
1786468672.990196,0.000400,0.000566,-0.000583,-0.110596,0.017578,-0.992920,0.997128,0.012642,0.074675,-0.000693,-0.981864,0.007115,-0.189453,0.000098,1.455014,8.565411,0.029376,-0.864716,21.841025,-0.178263,-3.821852,-0.119503,8.086942,0,0.003452992,0
1786468673.010113,0.000533,0.000966,-0.000583,-0.110352,0.017578,-0.994629,0.997102,0.012698,0.075004,-0.000696,-0.982488,0.007123,-0.186192,0.000098,1.461541,8.603196,0.029988,-0.864009,21.460557,-0.175203,-3.760164,-0.119789,8.110101,0,0.003452202,0
1786468673.030133,0.000533,0.001099,-0.001116,-0.110352,0.017578,-0.994873,0.997077,0.012754,0.075333,-0.000701,-0.983093,0.007134,-0.182970,0.000104,1.468024,8.641064,0.030298,-0.863701,21.084915,-0.172846,-3.699641,-0.120076,8.133881,0,0.003455962,0
1786468673.050042,0.000533,0.000433,-0.000717,-0.109863,0.018066,-0.992920,0.997051,0.012811,0.075659,-0.000705,-0.983679,0.007211,-0.179789,0.000105,1.474622,8.678532,0.030846,-0.871303,20.714257,-0.171510,-3.639099,-0.119861,8.159215,0,0.003454120,0
1786468673.071931,0.000400,0.000433,-0.000450,-0.110352,0.017578,-0.993408,0.997026,0.012866,0.075985,-0.000708,-0.984256,0.007207,-0.176600,0.000104,1.481088,8.716009,0.031541,-0.869206,20.342857,-0.168114,-3.580309,-0.121908,8.181342,0,0.003537438,0
1786468673.090288,0.000400,0.000833,-0.000717,-0.110107,0.017822,-0.992920,0.997000,0.012922,0.076313,-0.000711,-0.984809,0.007241,-0.173492,0.000105,1.487573,8.753711,0.032097,-0.871784,19.981225,-0.165824,-3.520566,-0.121690,8.204113,0,0.003449013,0
1786468673.110240,0.000267,0.000699,-0.000317,-0.110107,0.017578,-0.993896,0.996974,0.012977,0.076641,-0.000713,-0.985344,0.007238,-0.170426,0.000103,1.493983,8.791337,0.032883,-0.869816,19.624506,-0.162388,-3.462432,-0.122668,8.224474,0,0.003450683,0
1786468673.130125,0.000933,0.000966,-0.000983,-0.110352,0.017578,-0.993408,0.996948,0.013035,0.076970,-0.000718,-0.985864,0.007237,-0.167389,0.000108,1.500712,8.829125,0.033290,-0.868322,19.271469,-0.159942,-3.405258,-0.122586,8.245642,0,0.003449053,0
1786468673.150225,0.000134,0.000566,-0.000717,-0.110596,0.017578,-0.993408,0.996922,0.013089,0.077296,-0.000722,-0.986371,0.007246,-0.164374,0.000109,1.507002,8.866681,0.033848,-0.867952,18.921161,-0.157264,-3.348434,-0.122779,8.265793,0,0.003457050,0
1786468673.170134,0.000533,0.000966,-0.000583,-0.109619,0.017578,-0.993408,0.996896,0.013145,0.077625,-0.000725,-0.986857,0.007254,-0.161433,0.000109,1.513557,8.904460,0.034498,-0.867638,18.579574,-0.154596,-3.290853,-0.122933,8.285391,0,0.003454897,0
1786468673.190145,0.000267,0.001365,-0.000583,-0.110840,0.017578,-0.993408,0.996869,0.013199,0.077956,-0.000728,-0.987334,0.007265,-0.158491,0.000109,1.519934,8.942471,0.035154,-0.867616,18.238030,-0.151942,-3.236768,-0.123215,8.304164,0,0.003457612,0
1786468673.210081,0.000533,0.000966,-0.000717,-0.110107,0.017334,-0.993652,0.996843,0.013255,0.078285,-0.000732,-0.987793,0.007246,-0.155607,0.000111,1.526435,8.980259,0.035728,-0.864023,17.903362,-0.148976,-3.180475,-0.123694,8.322412,0,0.003456470,0
1786468673.230071,0.000134,0.000966,-0.000717,-0.109863,0.018066,-0.993896,0.996816,0.013310,0.078613,-0.000736,-0.988235,0.007330,-0.152764,0.000112,1.532815,9.018029,0.036323,-0.872837,17.573689,-0.147922,-3.125757,-0.122718,8.339948,0,0.003457945,0
1786468673.250062,0.000134,0.000833,-0.000583,-0.110107,0.017578,-0.992920,0.996789,0.013364,0.078941,-0.000739,-0.988667,0.007335,-0.149945,0.000112,1.539134,9.055732,0.036986,-0.872134,17.246897,-0.145254,-3.072215,-0.124896,8.358108,0,0.003459085,0
1786468673.270054,0.000400,0.001099,-0.000983,-0.110107,0.017822,-0.993164,0.996763,0.013419,0.079270,-0.000744,-0.989085,0.007370,-0.147163,0.000116,1.545605,9.093587,0.037432,-0.875278,16.924577,-0.143688,-3.018875,-0.124764,8.374591,0,0.003459971,0
1786468673.289945,0.000800,0.000833,-0.000717,-0.110107,0.017822,-0.993164,0.996736,0.013477,0.079598,-0.000747,-0.989490,0.007397,-0.144415,0.000118,1.552330,9.131286,0.038032,-0.877296,16.606252,-0.141726,-2.966075,-0.125435,8.390813,0,0.003456331,0
1786468673.309960,0.000533,0.000699,-0.000583,-0.109863,0.017090,-0.993408,0.996709,0.013532,0.079926,-0.000751,-0.989881,0.007330,-0.141709,0.000119,1.558820,9.168922,0.038696,-0.868243,16.292950,-0.138023,-2.913622,-0.126780,8.406291,0,0.003458889,0
1786468673.345037,0.000933,0.000833,-0.000717,-0.110352,0.017822,-0.993408,0.996682,0.013591,0.080254,-0.000755,-0.990292,0.007375,-0.138809,0.000126,1.565619,9.206621,0.039304,-0.872563,15.957328,-0.136929,-2.862804,-0.124621,8.421464,0,0.004128196,0
1786468673.350496,0.000267,0.000833,-0.000983,-0.110596,0.017090,-0.993408,0.996654,0.013644,0.080582,-0.000760,-0.990655,0.007326,-0.136194,0.000123,1.571907,9.244340,0.039745,-0.865699,15.654779,-0.133243,-2.807616,-0.126546,8.437475,0,0.003320856,0
1786468673.370093,0.000666,0.000966,-0.000583,-0.110596,0.017090,-0.993408,0.996627,0.013701,0.080910,-0.000763,-0.991007,0.007291,-0.133612,0.000124,1.578462,9.282129,0.040424,-0.860649,15.356161,-0.130319,-2.757908,-0.125536,8.451564,0,0.003338611,0
1786468673.390017,0.001066,0.000966,-0.000717,-0.110352,0.017578,-0.993652,0.996599,0.013759,0.081239,-0.000767,-0.991347,0.007328,-0.131059,0.000126,1.585308,9.319909,0.041042,-0.864085,15.061082,-0.128791,-2.708399,-0.124350,8.465000,0,0.003365868,0
1786468673.410328,0.000400,0.000699,-0.000983,-0.110840,0.017578,-0.993164,0.996572,0.013814,0.081566,-0.000772,-0.991681,0.007364,-0.128508,0.000130,1.591738,9.357541,0.041504,-0.867400,14.766265,-0.127436,-2.660086,-0.125254,8.478744,0,0.003402963,0
1786468673.430262,0.000533,0.001099,-0.000717,-0.110352,0.017578,-0.992920,0.996544,0.013870,0.081896,-0.000776,-0.992002,0.007393,-0.126003,0.000132,1.598282,9.395395,0.042133,-0.869947,14.476810,-0.125705,-2.610895,-0.125960,8.491951,0,0.003415114,0
1786468673.450164,0.000533,0.000966,-0.000717,-0.110352,0.017578,-0.993408,0.996516,0.013926,0.082224,-0.000780,-0.992314,0.007417,-0.123527,0.000133,1.604827,9.433173,0.042764,-0.871869,14.190862,-0.123909,-2.562915,-0.126571,8.503973,0,0.003422942,0
1786468673.470254,0.000400,0.000566,-0.000583,-0.109863,0.018555,-0.993652,0.996488,0.013983,0.082551,-0.000783,-0.992613,0.007561,-0.121087,0.000133,1.611452,9.470696,0.043494,-0.887917,13.909107,-0.123701,-2.514918,-0.126115,8.515863,0,0.003436873,0
1786468673.490414,0.000400,0.000833,-0.000450,-0.109619,0.017822,-0.993652,0.996460,0.014039,0.082878,-0.000785,-0.992903,0.007575,-0.118685,0.000132,1.617999,9.508385,0.044294,-0.888745,13.631905,-0.121497,-2.467928,-0.129685,8.527520,0,0.003450342,0
1786468673.510123,0.000533,0.000833,-0.000717,-0.110352,0.018066,-0.993652,0.996432,0.014095,0.083206,-0.000789,-0.993185,0.007618,-0.116295,0.000134,1.624614,9.546075,0.044947,-0.893017,13.356181,-0.120009,-2.422559,-0.129742,8.538816,0,0.003441352,0
1786468673.530151,0.000267,0.000034,-0.000717,-0.110107,0.018555,-0.993164,0.996404,0.014151,0.083530,-0.000792,-0.993459,0.007718,-0.113931,0.000135,1.631147,9.583295,0.045603,-0.903854,13.083425,-0.119252,-2.376260,-0.130185,8.550343,0,0.003448104,0
1786468673.549954,0.000533,0.000833,-0.000317,-0.110596,0.018066,-0.993896,0.996376,0.014208,0.083857,-0.000794,-0.993724,0.007726,-0.111597,0.000133,1.637799,9.620977,0.046496,-0.904055,12.814201,-0.116875,-2.331437,-0.132578,8.560227,0,0.003443689,0
1786468673.570132,0.000267,0.000566,-0.000583,-0.109863,0.018066,-0.992920,0.996348,0.014263,0.084184,-0.000797,-0.993978,0.007741,-0.109303,0.000134,1.644289,9.658510,0.047237,-0.905088,12.549752,-0.114915,-2.285732,-0.132836,8.571542,0,0.003456261,0
1786468673.590364,0.000400,0.000966,-0.000583,-0.110596,0.017578,-0.993896,0.996319,0.014318,0.084512,-0.000800,-0.994227,0.007691,-0.107024,0.000134,1.650776,9.696283,0.047976,-0.898440,12.287044,-0.112163,-2.242369,-0.133627,8.580485,0,0.003468088,0
1786468673.610225,0.000533,0.000566,-0.000450,-0.110596,0.017822,-0.993652,0.996291,0.014375,0.084839,-0.000803,-0.994467,0.007689,-0.104770,0.000133,1.657386,9.733820,0.048795,-0.897549,12.027398,-0.109934,-2.198363,-0.132393,8.590437,0,0.003461192,0
1786468673.630087,0.000533,0.000833,-0.000583,-0.109863,0.017090,-0.993652,0.996262,0.014430,0.085167,-0.000806,-0.994697,0.007600,-0.102572,0.000134,1.663904,9.771525,0.049531,-0.886559,11.774090,-0.106879,-2.154222,-0.133128,8.599790,0,0.003456030,0
1786468673.650204,0.000400,0.000966,-0.000983,-0.109863,0.017578,-0.993652,0.996233,0.014486,0.085495,-0.000811,-0.994918,0.007604,-0.100399,0.000139,1.670372,9.809302,0.050053,-0.886405,11.523876,-0.105431,-2.111810,-0.130978,8.608756,0,0.003462984,0
1786468673.670178,0.000533,0.000833,-0.000450,-0.110596,0.017578,-0.993164,0.996204,0.014542,0.085823,-0.000814,-0.995134,0.007609,-0.098234,0.000138,1.676955,9.846996,0.050885,-0.886390,11.274491,-0.103411,-2.070559,-0.131039,8.617900,0,0.003462150,0
1786468673.690512,0.000267,0.001232,-0.000317,-0.110107,0.017578,-0.993652,0.996175,0.014596,0.086153,-0.000815,-0.995341,0.007618,-0.096111,0.000136,1.683411,9.884914,0.051806,-0.886808,11.030054,-0.101318,-2.028296,-0.131212,8.625834,0,0.003476861,0
1786468673.714438,0.000400,0.001099,-0.000850,-0.110352,0.017578,-0.993652,0.996145,0.014652,0.086482,-0.000820,-0.995546,0.007627,-0.093965,0.000141,1.689887,9.922766,0.052419,-0.887308,10.783088,-0.100001,-1.987488,-0.131394,8.633926,0,0.003643066,0
1786468673.732174,0.000400,0.000833,-0.000583,-0.110840,0.017578,-0.993652,0.996116,0.014707,0.086809,-0.000823,-0.995742,0.007637,-0.091868,0.000141,1.696378,9.960461,0.053185,-0.887888,10.541744,-0.098163,-1.946347,-0.131606,8.641946,0,0.003500631,0
1786468673.751585,0.000400,0.000833,-0.000583,-0.111084,0.017578,-0.992920,0.996087,0.014762,0.087137,-0.000826,-0.995930,0.007648,-0.089801,0.000142,1.702866,9.998156,0.053955,-0.888708,10.303833,-0.096440,-1.905996,-0.131817,8.650320,0,0.003466455,0
1786468673.770358,0.000666,0.000433,-0.000450,-0.110352,0.017334,-0.993652,0.996057,0.014819,0.087463,-0.000828,-0.996110,0.007627,-0.087791,0.000141,1.709504,10.035624,0.054797,-0.885715,10.072668,-0.094304,-1.865124,-0.132262,8.656969,0,0.003413696,0
1786468673.790130,0.000666,0.000833,-0.000583,-0.110840,0.018066,-0.993408,0.996028,0.014876,0.087790,-0.000832,-0.996283,0.007708,-0.085797,0.000142,1.716217,10.073307,0.055587,-0.894560,9.843305,-0.093399,-1.826737,-0.131132,8.664207,0,0.003416365,0
1786468673.810313,0.000666,0.000433,-0.000583,-0.110596,0.018311,-0.993652,0.995998,0.014933,0.088116,-0.000835,-0.996450,0.007799,-0.083827,0.000143,1.722967,10.110755,0.056382,-0.904708,9.616723,-0.092604,-1.787739,-0.132482,8.670744,0,0.003435847,0
1786468673.830594,0.000400,0.000566,-0.000583,-0.110352,0.017578,-0.992920,0.995968,0.014989,0.088442,-0.000838,-0.996611,0.007779,-0.081885,0.000144,1.729477,10.148295,0.057167,-0.901915,9.393477,-0.090713,-1.749285,-0.135081,8.678000,0,0.003454716,0
1786468673.850194,0.000400,0.000833,-0.000983,-0.110596,0.018066,-0.993408,0.995938,0.015044,0.088770,-0.000843,-0.996767,0.007829,-0.079970,0.000149,1.736007,10.185983,0.057739,-0.907290,9.173256,-0.089929,-1.711876,-0.134235,8.683823,0,0.003439998,0
1786468673.870276,0.000800,0.000966,-0.000450,-0.110352,0.017334,-0.994385,0.995908,0.015102,0.089098,-0.000846,-0.996916,0.007771,-0.078089,0.000149,1.742732,10.223753,0.058613,-0.900054,8.957093,-0.087631,-1.674452,-0.135875,8.688911,0,0.003449414,0
1786468673.890048,0.000800,0.000833,-0.000850,-0.109863,0.017822,-0.993164,0.995878,0.015159,0.089426,-0.000850,-0.997059,0.007798,-0.076241,0.000153,1.749491,10.261442,0.059269,-0.902786,8.744612,-0.086587,-1.637386,-0.134269,8.695987,0,0.003443301,0
1786468673.910094,0.000533,0.000833,-0.000717,-0.110352,0.017578,-0.993408,0.995847,0.015215,0.089753,-0.000854,-0.997198,0.007790,-0.074405,0.000155,1.756072,10.299135,0.059999,-0.901500,8.533652,-0.085079,-1.601930,-0.135109,8.701332,0,0.003450368,0
1786468673.930678,0.000400,0.000966,-0.000983,-0.109863,0.018066,-0.993408,0.995817,0.015271,0.090082,-0.000859,-0.997330,0.007852,-0.072599,0.000160,1.762623,10.336896,0.060594,-0.908280,8.326096,-0.084505,-1.565761,-0.134520,8.706756,0,0.003478674,0
1786468673.950227,0.000533,0.001365,-0.000583,-0.109619,0.017578,-0.993652,0.995786,0.015327,0.090412,-0.000862,-0.997457,0.007836,-0.070833,0.000161,1.769238,10.374889,0.061424,-0.906036,8.123213,-0.082818,-1.530431,-0.136204,8.711694,0,0.003455833,0
1786468673.970125,0.000800,0.001099,-0.000450,-0.110107,0.018311,-0.993652,0.995755,0.015385,0.090741,-0.000865,-0.997580,0.007918,-0.069075,0.000161,1.776103,10.412711,0.062345,-0.915177,7.921369,-0.081823,-1.496494,-0.135113,8.716677,0,0.003453543,0
1786468673.990181,0.000400,0.000966,-0.000583,-0.110596,0.018555,-0.992920,0.995725,0.015442,0.091069,-0.000868,-0.997699,0.008015,-0.067326,0.000162,1.782748,10.450456,0.063195,-0.926046,7.720479,-0.081046,-1.462737,-0.136575,8.722210,0,0.003458517,0
1786468674.010113,0.000933,0.001232,-0.000717,-0.110352,0.018066,-0.993408,0.995693,0.015500,0.091398,-0.000872,-0.997813,0.008021,-0.065612,0.000164,1.789629,10.488365,0.063967,-0.926408,7.523598,-0.079765,-1.428467,-0.138883,8.726368,0,0.003456968,0
1786468674.030465,0.000400,0.000566,-0.000717,-0.109863,0.018066,-0.993652,0.995663,0.015556,0.091724,-0.000875,-0.997923,0.008033,-0.063922,0.000166,1.796215,10.525890,0.064733,-0.927408,7.329531,-0.078516,-1.394440,-0.139117,8.730609,0,0.003473756,0
1786468674.050387,0.000267,0.000833,-0.000450,-0.110352,0.017334,-0.994141,0.995631,0.015611,0.092052,-0.000878,-0.998029,0.007950,-0.062251,0.000166,1.802653,10.563580,0.065644,-0.917522,7.137649,-0.076282,-1.362030,-0.140109,8.734406,0,0.003468049,0
1786468674.071026,0.000267,0.000300,-0.000583,-0.109131,0.017822,-0.993408,0.995601,0.015666,0.092376,-0.000881,-0.998130,0.007959,-0.060614,0.000167,1.809163,10.600954,0.066489,-0.918316,6.949786,-0.074939,-1.328116,-0.138010,8.739315,0,0.003494406,0
1786468674.091089,0.000267,0.000433,-0.000317,-0.110352,0.017822,-0.993164,0.995569,0.015721,0.092702,-0.000882,-0.998228,0.007968,-0.058976,0.000165,1.815678,10.638402,0.067490,-0.919029,6.761660,-0.073274,-1.297439,-0.138202,8.743498,0,0.003489586,0
1786468674.110077,0.000666,0.000699,-0.000717,-0.110352,0.018311,-0.993652,0.995538,0.015779,0.093029,-0.000886,-0.998321,0.008036,-0.057372,0.000168,1.822443,10.675999,0.068280,-0.926608,6.577556,-0.072479,-1.265503,-0.137834,8.746848,0,0.003440173,0
1786468674.130605,0.000666,0.001099,-0.000583,-0.110352,0.018066,-0.994141,0.995506,0.015836,0.093357,-0.000889,-0.998410,0.008056,-0.055790,0.000169,1.829195,10.713827,0.069154,-0.928578,6.396040,-0.071282,-1.234285,-0.139414,8.749990,0,0.003468560,0
1786468674.150319,0.000533,0.000966,-0.000983,-0.110596,0.017334,-0.993408,0.995475,0.015892,0.093685,-0.000895,-0.998497,0.007982,-0.054226,0.000174,1.835731,10.751601,0.069779,-0.919804,6.216538,-0.069915,-1.203614,-0.140576,8.754231,0,0.003455248,0
1786468674.170641,0.000400,0.001099,-0.000450,-0.110596,0.017334,-0.992676,0.995443,0.015947,0.094014,-0.000897,-0.998580,0.007934,-0.052680,0.000174,1.842251,10.789442,0.070721,-0.914023,6.039084,-0.068164,-1.173100,-0.139150,8.758360,0,0.003471134,0
1786468674.190881,0.000800,0.000566,-0.000583,-0.110352,0.018066,-0.993652,0.995411,0.016005,0.094340,-0.000900,-0.998659,0.007992,-0.051153,0.000175,1.849082,10.826963,0.071598,-0.920463,5.863866,-0.067250,-1.142540,-0.137409,8.760655,0,0.003479665,0
1786468674.210272,0.000400,0.000966,-0.000583,-0.110352,0.017578,-0.993652,0.995379,0.016060,0.094668,-0.000903,-0.998734,0.007977,-0.049657,0.000176,1.855626,10.864724,0.072476,-0.918496,5.692301,-0.065884,-1.112773,-0.139125,8.763740,0,0.003449863,0
1786468674.230095,0.000666,0.001099,-0.000850,-0.110596,0.017578,-0.994141,0.995347,0.016117,0.094997,-0.000908,-0.998807,0.007966,-0.048181,0.000180,1.862291,10.902565,0.073204,-0.917008,5.522898,-0.064893,-1.083820,-0.138789,8.766212,0,0.003445849,0
1786468674.250446,0.000933,0.000699,-0.000450,-0.109619,0.017090,-0.992920,0.995314,0.016174,0.095324,-0.000911,-0.998876,0.007900,-0.046735,0.000180,1.869112,10.940178,0.074155,-0.909186,5.357009,-0.063218,-1.053906,-0.139005,8.770279,0,0.003465280,0
1786468674.270428,0.000267,0.000566,-0.000450,-0.109375,0.017578,-0.993652,0.995282,0.016229,0.095650,-0.000913,-0.998941,0.007921,-0.045312,0.000180,1.875619,10.977704,0.075121,-0.911476,5.193821,-0.062007,-1.025358,-0.137360,8.772261,0,0.003464232,0
1786468674.290134,-0.000133,0.001099,-0.000450,-0.110107,0.017334,-0.992920,0.995250,0.016282,0.095979,-0.000915,-0.999005,0.007912,-0.043901,0.000180,1.881855,11.015541,0.076092,-0.910189,5.031961,-0.060626,-0.998369,-0.138112,8.775546,0,0.003451648,0
1786468674.310545,0.000400,0.000433,-0.000450,-0.110107,0.018311,-0.993896,0.995217,0.016338,0.096304,-0.000918,-0.999064,0.008028,-0.042499,0.000180,1.888516,11.052976,0.077078,-0.923275,4.871135,-0.059915,-0.970641,-0.136850,8.777056,0,0.003472245,0
1786468674.330856,0.000267,0.001365,-0.000583,-0.110352,0.017822,-0.993408,0.995185,0.016393,0.096634,-0.000921,-0.999122,0.008052,-0.041119,0.000181,1.895025,11.090958,0.077996,-0.925942,4.712883,-0.058915,-0.943636,-0.139637,8.779869,0,0.003483527,0
1786468674.350093,0.000533,0.000699,-0.000850,-0.110596,0.018066,-0.993164,0.995152,0.016450,0.096960,-0.000925,-0.999177,0.008103,-0.039752,0.000185,1.901681,11.128558,0.078755,-0.931555,4.556124,-0.058297,-0.916739,-0.139841,8.782382,0,0.003446179,0
1786468674.370394,0.000400,0.001365,-0.000717,-0.110352,0.017334,-0.993896,0.995119,0.016505,0.097290,-0.000929,-0.999229,0.008047,-0.038416,0.000188,1.908195,11.166552,0.079593,-0.925002,4.402918,-0.057123,-0.889883,-0.141585,8.783791,0,0.003463412,0
1786468674.390205,0.000533,0.000833,-0.000184,-0.109863,0.018066,-0.993896,0.995086,0.016562,0.097618,-0.000930,-0.999279,0.008103,-0.037102,0.000186,1.914945,11.204214,0.080756,-0.931301,4.252183,-0.055855,-0.863136,-0.139735,8.785867,0,0.003455556,0
1786468674.410252,0.000134,0.000966,-0.000583,-0.110107,0.017822,-0.993408,0.995053,0.016616,0.097945,-0.000933,-0.999326,0.008119,-0.035801,0.000187,1.921388,11.241965,0.081685,-0.932937,4.103052,-0.054863,-0.837672,-0.141169,8.788282,0,0.003459629,0
1786468674.430449,0.000533,0.000566,-0.000583,-0.110840,0.018311,-0.993164,0.995020,0.016673,0.098271,-0.000936,-0.999371,0.008192,-0.034498,0.000189,1.928104,11.279478,0.082620,-0.941220,3.953602,-0.054113,-0.812861,-0.140911,8.790389,0,0.003469148,0
1786468674.450347,0.000400,0.000566,-0.000317,-0.110107,0.018311,-0.993408,0.994986,0.016729,0.098597,-0.000938,-0.999414,0.008249,-0.033227,0.000188,1.934791,11.316985,0.083718,-0.947595,3.807972,-0.053002,-0.786603,-0.142378,8.791919,0,0.003463576,0
1786468674.470367,0.000533,0.000300,-0.000717,-0.110107,0.017334,-0.994385,0.994953,0.016785,0.098922,-0.000942,-0.999455,0.008164,-0.031976,0.000190,1.941391,11.354366,0.084559,-0.937694,3.664555,-0.051835,-0.761673,-0.144450,8.792616,0,0.003464527,0
1786468674.491107,0.000267,0.000833,-0.000317,-0.110352,0.017090,-0.993652,0.994920,0.016839,0.099249,-0.000943,-0.999495,0.008077,-0.030738,0.000190,1.947853,11.392049,0.085641,-0.927511,3.522522,-0.050252,-0.737525,-0.143074,8.794969,0,0.003496058,0
1786468674.510311,0.000533,0.001099,-0.000717,-0.111328,0.017090,-0.993652,0.994886,0.016895,0.099578,-0.000947,-0.999532,0.008014,-0.029506,0.000192,1.954405,11.429895,0.086496,-0.920167,3.381398,-0.049207,-0.714267,-0.141317,8.796520,0,0.003454197,0
1786468674.531123,0.000267,0.000433,-0.000317,-0.109619,0.017822,-0.992920,0.994852,0.016950,0.099903,-0.000949,-0.999567,0.008071,-0.028308,0.000191,1.960973,11.467332,0.087599,-0.926591,3.243983,-0.048186,-0.688322,-0.139394,8.798734,0,0.003491277,0
1786468674.550279,0.000134,0.000833,-0.000717,-0.110840,0.017822,-0.993652,0.994819,0.017004,0.100230,-0.000953,-0.999599,0.008112,-0.027116,0.000194,1.967396,11.505009,0.088477,-0.931217,3.107357,-0.047513,-0.666121,-0.140547,8.799339,0,0.003448557,0
1786468674.570615,-0.000133,0.000966,-0.000450,-0.109863,0.017090,-0.992920,0.994785,0.017056,0.100558,-0.000955,-0.999631,0.008055,-0.025957,0.000195,1.973631,11.542768,0.089504,-0.924507,2.974528,-0.046306,-0.641825,-0.142140,8.801352,0,0.003466704,0
1786468674.590222,0.000267,0.000300,-0.000717,-0.109863,0.017334,-0.993896,0.994751,0.017111,0.100882,-0.000959,-0.999660,0.008042,-0.024811,0.000197,1.980092,11.580147,0.090372,-0.922984,2.843183,-0.045541,-0.618979,-0.140693,8.801609,0,0.003449314,0
1786468674.611067,0.001066,0.000833,-0.000583,-0.110107,0.017334,-0.992920,0.994716,0.017169,0.101210,-0.000962,-0.999687,0.008031,-0.023675,0.000200,1.987024,11.617828,0.091332,-0.921618,2.712918,-0.044711,-0.596876,-0.140283,8.803728,0,0.003489043,0
1786468674.630298,0.000400,0.000167,-0.000583,-0.110352,0.017090,-0.993896,0.994683,0.017224,0.101533,-0.000965,-0.999714,0.007997,-0.022551,0.000201,1.993541,11.655133,0.092276,-0.917603,2.584133,-0.043761,-0.574705,-0.140453,8.803841,0,0.003450082,0
1786468674.650489,0.000666,0.000966,-0.000317,-0.109619,0.017578,-0.993652,0.994648,0.017281,0.101861,-0.000967,-0.999737,0.008037,-0.021460,0.000201,2.000320,11.692878,0.093412,-0.922083,2.459085,-0.042779,-0.552106,-0.139236,8.805109,0,0.003461656,0
1786468674.670238,0.000533,0.000699,-0.000717,-0.109619,0.017578,-0.993652,0.994614,0.017337,0.102188,-0.000971,-0.999760,0.008069,-0.020383,0.000204,2.006977,11.730479,0.094313,-0.925687,2.335626,-0.042220,-0.530659,-0.140049,8.806041,0,0.003451542,0
1786468674.690772,0.000800,0.000833,-0.000583,-0.110352,0.017578,-0.993652,0.994579,0.017395,0.102515,-0.000974,-0.999781,0.008091,-0.019307,0.000206,2.013789,11.768154,0.095297,-0.928182,2.212267,-0.041514,-0.510305,-0.140621,8.806915,0,0.003477405,0
1786468674.710894,0.000267,0.000566,-0.000317,-0.110352,0.017822,-0.993896,0.994544,0.017450,0.102840,-0.000976,-0.999800,0.008145,-0.018242,0.000205,2.020358,11.805666,0.096441,-0.934237,2.090285,-0.040551,-0.489145,-0.140923,8.807502,0,0.003479369,0
1786468674.730594,0.001066,0.000300,-0.000717,-0.109863,0.017822,-0.993164,0.994510,0.017509,0.103165,-0.000980,-0.999819,0.008182,-0.017199,0.000208,2.027348,11.843032,0.097352,-0.938456,1.970739,-0.040021,-0.467731,-0.141821,8.809007,0,0.003462801,0
1786468674.750163,0.000800,0.000566,-0.000717,-0.110596,0.018066,-0.993408,0.994475,0.017567,0.103490,-0.000984,-0.999835,0.008243,-0.016164,0.000212,2.034203,11.880547,0.098277,-0.945391,1.852076,-0.039523,-0.448059,-0.142362,8.809473,0,0.003444750,0
1786468674.770159,0.000267,0.000566,-0.000450,-0.109863,0.017822,-0.993652,0.994440,0.017622,0.103816,-0.000987,-0.999851,0.008262,-0.015156,0.000212,2.040772,11.918059,0.099359,-0.947507,1.736520,-0.038673,-0.427024,-0.143903,8.809886,0,0.003449332,0
1786468674.790497,0.000400,0.000433,-0.000717,-0.110596,0.018066,-0.992920,0.994405,0.017678,0.104141,-0.000990,-0.999865,0.008310,-0.014144,0.000216,2.047401,11.955497,0.100290,-0.952863,1.620599,-0.038177,-0.407955,-0.144006,8.811233,0,0.003467380,0
1786468674.810660,0.000400,0.000966,-0.000317,-0.110107,0.018311,-0.993652,0.994370,0.017734,0.104469,-0.000992,-0.999878,0.008377,-0.013160,0.000215,2.054121,11.993225,0.101479,-0.960481,1.507823,-0.037271,-0.387734,-0.144686,8.811064,0,0.003473537,0
1786468674.830508,0.000533,0.000566,-0.000450,-0.109863,0.017822,-0.993408,0.994334,0.017791,0.104794,-0.000995,-0.999891,0.008364,-0.012192,0.000216,2.060849,12.030737,0.102575,-0.958970,1.396845,-0.036404,-0.368107,-0.146462,8.811816,0,0.003464694,0
1786468674.850744,0.000400,0.000566,-0.000717,-0.111084,0.017822,-0.993652,0.994299,0.017846,0.105120,-0.000998,-0.999902,0.008356,-0.011217,0.000219,2.067445,12.068255,0.103514,-0.957966,1.285131,-0.035851,-0.350333,-0.146237,8.812058,0,0.003474657,0
1786468674.870841,0.000533,0.000566,-0.000583,-0.110107,0.018311,-0.993164,0.994263,0.017903,0.105445,-0.001001,-0.999912,0.008417,-0.010269,0.000221,2.074213,12.105759,0.104552,-0.964893,1.176480,-0.035254,-0.330235,-0.145558,8.812997,0,0.003476153,0
1786468674.890425,0.000134,0.000433,-0.000850,-0.108643,0.017822,-0.992676,0.994228,0.017957,0.105770,-0.001006,-0.999921,0.008405,-0.009358,0.000226,2.080692,12.143199,0.105430,-0.963561,1.072113,-0.034881,-0.310142,-0.147319,8.813864,0,0.003455476,0
1786468674.911057,0.000134,0.000966,-0.000717,-0.110596,0.017090,-0.993408,0.994192,0.018011,0.106098,-0.001009,-0.999930,0.008300,-0.008435,0.000229,2.087067,12.180959,0.106376,-0.951415,0.966360,-0.034298,-0.294341,-0.147827,8.813484,0,0.003484556,0
1786468674.930445,0.000800,0.000833,-0.000450,-0.110596,0.017578,-0.993652,0.994156,0.018068,0.106425,-0.001012,-0.999937,0.008284,-0.007526,0.000230,2.093914,12.218627,0.107491,-0.949529,0.862188,-0.033492,-0.276202,-0.145139,8.813600,0,0.003453399,0
1786468674.950638,-0.000266,0.001232,-0.000450,-0.110107,0.018555,-0.993652,0.994120,0.018121,0.106754,-0.001014,-0.999943,0.008409,-0.006638,0.000231,2.100278,12.256503,0.108645,-0.963827,0.760401,-0.032838,-0.257965,-0.144049,8.813885,0,0.003464273,0
1786468674.970341,0.000533,0.001099,-0.000317,-0.110107,0.017578,-0.994141,0.994084,0.018178,0.107082,-0.001016,-0.999948,0.008368,-0.005766,0.000230,2.107004,12.294319,0.109856,-0.959120,0.660453,-0.031914,-0.240508,-0.147321,8.813607,0,0.003451566,0
1786468674.990778,0.000267,0.000833,-0.000717,-0.110107,0.017334,-0.993896,0.994047,0.018232,0.107409,-0.001020,-0.999953,0.008311,-0.004901,0.000234,2.113499,12.331996,0.110824,-0.952555,0.561347,-0.031471,-0.223350,-0.146813,8.814076,0,0.003473274,0
1786468675.010131,0.000800,0.000833,-0.000717,-0.109619,0.017334,-0.993408,0.994011,0.018289,0.107736,-0.001024,-0.999958,0.008270,-0.004057,0.000237,2.120311,12.369671,0.111800,-0.947797,0.464669,-0.031028,-0.205885,-0.145594,8.814766,0,0.003443465,0
1786468675.030073,0.000933,0.001099,-0.000317,-0.110107,0.017090,-0.993896,0.993974,0.018347,0.108064,-0.001026,-0.999961,0.008207,-0.003222,0.000237,2.127215,12.407495,0.113012,-0.940600,0.368963,-0.030168,-0.189879,-0.144995,8.814440,0,0.003446037,0
1786468675.050160,0.000933,0.000566,-0.000450,-0.110352,0.017578,-0.992676,0.993938,0.018405,0.108389,-0.001028,-0.999963,0.008229,-0.002385,0.000238,2.134153,12.445008,0.114150,-0.943083,0.273102,-0.029495,-0.173634,-0.143275,8.815801,0,0.003454219,0
1786468675.070361,0.000533,0.000833,-0.000717,-0.109863,0.017578,-0.992676,0.993901,0.018461,0.108716,-0.001032,-0.999965,0.008251,-0.001569,0.000241,2.140842,12.482678,0.115145,-0.945499,0.179578,-0.029149,-0.156785,-0.143780,8.815885,0,0.003465193,0
1786468675.090345,0.000800,0.000966,-0.000717,-0.110107,0.017578,-0.993408,0.993864,0.018519,0.109044,-0.001036,-0.999966,0.008264,-0.000764,0.000245,2.147682,12.520424,0.116146,-0.947014,0.087267,-0.028800,-0.141041,-0.144143,8.815210,0,0.003464259,0
1786468675.110199,0.000267,0.001099,-0.000583,-0.109863,0.017578,-0.993408,0.993827,0.018574,0.109372,-0.001039,-0.999966,0.008280,0.000025,0.000247,2.154241,12.558242,0.117234,-0.948793,-0.003116,-0.028312,-0.125017,-0.144507,8.815241,0,0.003458009,0
1786468675.130407,0.001066,0.000966,-0.000717,-0.109863,0.018311,-0.993896,0.993790,0.018633,0.109699,-0.001043,-0.999965,0.008381,0.000806,0.000251,2.161326,12.595973,0.118264,-0.960385,-0.092589,-0.027984,-0.109519,-0.143920,8.814762,0,0.003468373,0
1786468675.150652,0.000533,0.000699,-0.000583,-0.109863,0.017334,-0.993652,0.993753,0.018689,0.110025,-0.001047,-0.999964,0.008334,0.001577,0.000253,2.168011,12.633566,0.119346,-0.954960,-0.180943,-0.027520,-0.094147,-0.146986,8.814959,0,0.003477778,0
1786468675.170550,-0.000133,0.000167,-0.000317,-0.110107,0.017578,-0.993408,0.993716,0.018742,0.110349,-0.001048,-0.999962,0.008338,0.002346,0.000253,2.174373,12.670844,0.120583,-0.955443,-0.269087,-0.026739,-0.079158,-0.145944,8.815180,0,0.003470044,0
1786468675.190187,0.000533,0.000433,-0.000450,-0.110596,0.018066,-0.993896,0.993678,0.018798,0.110673,-0.001051,-0.999960,0.008400,0.003107,0.000254,2.181147,12.708269,0.121761,-0.962501,-0.356317,-0.026093,-0.064605,-0.145409,8.814634,0,0.003453085,0
1786468675.211041,0.000533,0.000433,-0.000583,-0.109619,0.017578,-0.993408,0.993641,0.018855,0.110998,-0.001054,-0.999957,0.008385,0.003847,0.000256,2.187870,12.745704,0.122859,-0.960801,-0.441118,-0.025685,-0.048698,-0.147097,8.815020,0,0.003492267,0
1786468675.230462,0.000400,0.000833,-0.000983,-0.109131,0.018066,-0.992676,0.993604,0.018911,0.111325,-0.001059,-0.999954,0.008443,0.004566,0.000262,2.194534,12.783366,0.123749,-0.967427,-0.523481,-0.025661,-0.033760,-0.146349,8.815657,0,0.003460601,0
1786468675.251013,0.000400,0.000433,-0.000717,-0.110352,0.017578,-0.993652,0.993566,0.018966,0.111649,-0.001063,-0.999951,0.008420,0.005294,0.000266,2.201153,12.820804,0.124774,-0.964698,-0.606924,-0.025409,-0.020809,-0.147965,8.814542,0,0.003484984,0
1786468675.274636,0.000134,0.000167,-0.000583,-0.110352,0.017578,-0.993408,0.993529,0.019020,0.111973,-0.001066,-0.999946,0.008406,0.006029,0.000270,2.207637,12.858087,0.125876,-0.963149,-0.691142,-0.025084,-0.006474,-0.147545,8.814652,0,0.003636098,0
1786468675.291422,0.000267,0.000566,-0.000717,-0.109863,0.018066,-0.993896,0.993491,0.019075,0.112298,-0.001069,-0.999942,0.008461,0.006728,0.000272,2.214248,12.895591,0.126928,-0.969409,-0.771202,-0.024660,0.008378,-0.146776,8.814006,0,0.003454935,0
1786468675.310373,0.000533,0.000566,-0.000450,-0.109863,0.017090,-0.993896,0.993453,0.019131,0.112624,-0.001072,-0.999937,0.008374,0.007410,0.000273,2.220938,12.933107,0.128116,-0.959426,-0.849331,-0.024168,0.022072,-0.148766,8.813814,0,0.003412581,0
1786468675.330351,0.000533,0.001232,-0.000317,-0.110596,0.017578,-0.993652,0.993415,0.019187,0.112952,-0.001074,-0.999932,0.008374,0.008088,0.000273,2.227693,12.970993,0.129411,-0.959475,-0.927014,-0.023495,0.034579,-0.146561,8.813900,0,0.003424276,0
1786468675.350656,0.000533,0.001099,-0.000717,-0.110107,0.017578,-0.993164,0.993376,0.019243,0.113280,-0.001078,-0.999927,0.008378,0.008754,0.000277,2.234405,13.008811,0.130476,-0.959870,-1.003323,-0.023300,0.048390,-0.146563,8.814182,0,0.003447018,0
1786468675.370987,0.000533,0.000566,-0.000450,-0.109863,0.018311,-0.992920,0.993338,0.019300,0.113605,-0.001080,-0.999920,0.008478,0.009416,0.000278,2.241239,13.046303,0.131708,-0.971371,-1.079216,-0.022692,0.061802,-0.145895,8.814203,0,0.003465297,0
1786468675.390367,0.000267,0.000566,-0.000583,-0.110352,0.017578,-0.993408,0.993300,0.019355,0.113930,-0.001083,-0.999913,0.008458,0.010070,0.000280,2.247813,13.083812,0.132847,-0.969024,-1.154192,-0.022345,0.074312,-0.148647,8.813445,0,0.003438596,0
1786468675.410809,0.000933,0.000966,-0.000450,-0.110352,0.017578,-0.994141,0.993261,0.019413,0.114258,-0.001086,-0.999907,0.008438,0.010712,0.000281,2.254790,13.121547,0.134078,-0.966719,-1.227749,-0.021890,0.087060,-0.148105,8.812473,0,0.003463681,0
1786468675.430483,0.000800,0.001232,-0.000717,-0.110596,0.018311,-0.993408,0.993222,0.019471,0.114586,-0.001090,-0.999899,0.008522,0.011347,0.000285,2.261737,13.159426,0.135181,-0.976398,-1.300563,-0.021592,0.099365,-0.147005,8.812952,0,0.003449928,0
1786468675.450516,-0.000133,0.001099,-0.000583,-0.110352,0.017578,-0.993652,0.993183,0.019524,0.114914,-0.001093,-0.999892,0.008497,0.011970,0.000288,2.268092,13.197239,0.136346,-0.973456,-1.371872,-0.021321,0.112094,-0.149570,8.812401,0,0.003454806,0
1786468675.470704,-0.000266,0.000566,-0.000450,-0.110107,0.017578,-0.993652,0.993144,0.019576,0.115239,-0.001095,-0.999885,0.008481,0.012586,0.000289,2.274391,13.234743,0.137582,-0.971629,-1.442520,-0.020897,0.124647,-0.149088,8.812122,0,0.003465121,0
1786468675.490490,-0.000266,0.001099,-0.000583,-0.110596,0.018066,-0.993652,0.993105,0.019628,0.115567,-0.001097,-0.999876,0.008533,0.013195,0.000292,2.280722,13.272547,0.138768,-0.977664,-1.512338,-0.020525,0.136151,-0.148281,8.811833,0,0.003455741,0
1786468675.510513,0.000800,0.000433,-0.000983,-0.109619,0.017822,-0.993408,0.993066,0.019686,0.115891,-0.001103,-0.999868,0.008535,0.013790,0.000298,2.287598,13.309981,0.139705,-0.977899,-1.580493,-0.020685,0.149207,-0.149342,8.811752,0,0.003458765,0
1786468675.530253,0.000400,0.001099,-0.000983,-0.110107,0.017578,-0.993408,0.993027,0.019741,0.116219,-0.001108,-0.999860,0.008509,0.014374,0.000305,2.294214,13.347802,0.140655,-0.974848,-1.647485,-0.020894,0.160256,-0.149700,8.811439,0,0.003449026,0
1786468675.550233,0.000533,0.000833,-0.000583,-0.110107,0.017822,-0.992920,0.992987,0.019797,0.116546,-0.001111,-0.999852,0.008523,0.014955,0.000307,2.300988,13.385456,0.141844,-0.976438,-1.713988,-0.020594,0.171770,-0.148903,8.811612,0,0.003451868,0
1786468675.570294,0.000800,0.001099,-0.000317,-0.110352,0.017822,-0.993408,0.992948,0.019855,0.116873,-0.001113,-0.999843,0.008531,0.015527,0.000307,2.307951,13.423256,0.143200,-0.977375,-1.779545,-0.020009,0.182854,-0.149119,8.810788,0,0.003457480,0
1786468675.590264,0.000400,0.000833,-0.000450,-0.110107,0.017334,-0.993164,0.992908,0.019911,0.117200,-0.001115,-0.999835,0.008478,0.016090,0.000308,2.314618,13.460915,0.144465,-0.971352,-1.844043,-0.019704,0.194370,-0.149839,8.810685,0,0.003457821,0
1786468675.610416,0.000533,0.000433,-0.000583,-0.110596,0.017822,-0.994141,0.992869,0.019967,0.117524,-0.001119,-0.999825,0.008501,0.016655,0.000311,2.321387,13.498340,0.145656,-0.973975,-1.908823,-0.019410,0.204998,-0.148287,8.809375,0,0.003465858,0
1786468675.630396,0.000134,0.000433,-0.000450,-0.110107,0.017578,-0.994141,0.992829,0.020021,0.117849,-0.001121,-0.999816,0.008491,0.017205,0.000312,2.327930,13.535766,0.146927,-0.972808,-1.971913,-0.019049,0.216571,-0.149053,8.809003,0,0.003464558,0
1786468675.650361,0.000800,0.000966,-0.000317,-0.110107,0.017578,-0.993652,0.992789,0.020079,0.118176,-0.001123,-0.999807,0.008481,0.017743,0.000312,2.334878,13.573493,0.148294,-0.971672,-2.033575,-0.018545,0.227263,-0.148718,8.809134,0,0.003462947,0
1786468675.670471,0.000400,0.000300,-0.001116,-0.110352,0.017822,-0.993164,0.992749,0.020134,0.118500,-0.001129,-0.999797,0.008510,0.018285,0.000320,2.341508,13.610852,0.149184,-0.975039,-2.095642,-0.018875,0.237703,-0.148345,8.809251,0,0.003467951,0
1786468675.690403,0.000666,0.000566,-0.000450,-0.109863,0.017578,-0.993408,0.992709,0.020191,0.118825,-0.001131,-0.999787,0.008499,0.018809,0.000322,2.348368,13.648352,0.150473,-0.973801,-2.155702,-0.018536,0.248757,-0.149112,8.808617,0,0.003464097,0
1786468675.710394,0.000666,0.000433,-0.000850,-0.110596,0.018066,-0.993164,0.992669,0.020248,0.119149,-0.001136,-0.999776,0.008556,0.019337,0.000327,2.355213,13.685777,0.151537,-0.980283,-2.216225,-0.018498,0.258328,-0.148402,8.808483,0,0.003463683,0
1786468675.730297,0.000666,0.000966,-0.000583,-0.109863,0.018555,-0.992920,0.992629,0.020305,0.119476,-0.001139,-0.999765,0.008664,0.019844,0.000329,2.362168,13.723490,0.152792,-0.992648,-2.274403,-0.018060,0.269311,-0.149018,8.808317,0,0.003459657,0
1786468675.750998,0.000666,0.001099,-0.000450,-0.110107,0.017090,-0.993896,0.992588,0.020362,0.119803,-0.001142,-0.999756,0.008549,0.020343,0.000331,2.368981,13.761303,0.154095,-0.979546,-2.331526,-0.018008,0.278985,-0.152587,8.806916,0,0.003490702,0
1786468675.770938,0.000933,0.000966,-0.000317,-0.110352,0.017578,-0.993408,0.992547,0.020420,0.120130,-0.001144,-0.999746,0.008530,0.020840,0.000331,2.376015,13.799027,0.155489,-0.977356,-2.388542,-0.017567,0.288547,-0.149805,8.807049,0,0.003481581,0
1786468675.790428,0.000400,0.001365,-0.000583,-0.110107,0.017822,-0.993164,0.992506,0.020476,0.120459,-0.001147,-0.999736,0.008554,0.021324,0.000334,2.382742,13.836982,0.156749,-0.980092,-2.443919,-0.017346,0.298474,-0.149283,8.806899,0,0.003455508,0
1786468675.810358,0.000533,0.000566,-0.000583,-0.110352,0.017578,-0.993164,0.992466,0.020532,0.120784,-0.001150,-0.999726,0.008539,0.021809,0.000336,2.389512,13.874483,0.157986,-0.978418,-2.499611,-0.017220,0.307853,-0.149960,8.806486,0,0.003454639,0
1786468675.831124,0.000267,0.001232,-0.000583,-0.109619,0.018311,-0.993408,0.992425,0.020587,0.121112,-0.001153,-0.999715,0.008628,0.022277,0.000340,2.396228,13.912351,0.159266,-0.988601,-2.553164,-0.016895,0.317972,-0.148984,8.805841,0,0.003489669,0
1786468675.850420,0.000666,0.000833,-0.000983,-0.109863,0.017578,-0.993652,0.992384,0.020644,0.121439,-0.001158,-0.999704,0.008595,0.022740,0.000346,2.403033,13.950013,0.160286,-0.984746,-2.606277,-0.017261,0.326983,-0.151376,8.805160,0,0.003453296,0
1786468675.870416,0.000533,0.000833,-0.000317,-0.109375,0.017822,-0.993164,0.992342,0.020700,0.121765,-0.001160,-0.999694,0.008606,0.023192,0.000346,2.409893,13.987653,0.161711,-0.986026,-2.658131,-0.016809,0.336548,-0.150493,8.805250,0,0.003455803,0
1786468675.890561,0.000533,0.001099,-0.000583,-0.110352,0.017578,-0.993164,0.992301,0.020757,0.122092,-0.001163,-0.999683,0.008582,0.023647,0.000349,2.416675,14.025458,0.162980,-0.983263,-2.710189,-0.016758,0.344387,-0.150946,8.804842,0,0.003464017,0
1786468675.910321,0.000533,0.000966,-0.000583,-0.110107,0.017822,-0.993408,0.992260,0.020813,0.122419,-0.001166,-0.999673,0.008597,0.024093,0.000352,2.423488,14.063181,0.164259,-0.985016,-2.761329,-0.016599,0.353565,-0.150224,8.804187,0,0.003453815,0
1786468675.930426,0.000666,0.000699,-0.000317,-0.110596,0.018066,-0.993652,0.992218,0.020870,0.122745,-0.001168,-0.999661,0.008639,0.024541,0.000352,2.430435,14.100742,0.165696,-0.989835,-2.812713,-0.016060,0.361871,-0.150247,8.803518,0,0.003460825,0
1786468675.950282,0.000533,0.000833,-0.000717,-0.109619,0.017578,-0.993896,0.992177,0.020926,0.123071,-0.001172,-0.999651,0.008608,0.024969,0.000356,2.437216,14.138395,0.166898,-0.986365,-2.861767,-0.016205,0.371612,-0.151575,8.802833,0,0.003455477,0
1786468675.970717,-0.000133,0.000433,-0.000717,-0.110352,0.017822,-0.993164,0.992135,0.020979,0.123395,-0.001176,-0.999640,0.008625,0.025405,0.000361,2.443628,14.175816,0.168097,-0.988237,-2.911801,-0.016244,0.379343,-0.150860,8.803154,0,0.003476157,0
1786468675.990283,0.000933,0.001099,-0.000450,-0.110107,0.018311,-0.993408,0.992093,0.021038,0.123722,-0.001178,-0.999629,0.008694,0.025826,0.000362,2.450752,14.213603,0.169489,-0.996144,-2.960041,-0.015787,0.388019,-0.150483,8.802483,0,0.003454715,0
1786468676.010276,0.000400,0.000966,-0.000717,-0.109131,0.017822,-0.993652,0.992051,0.021094,0.124049,-0.001182,-0.999618,0.008686,0.026230,0.000367,2.457499,14.251326,0.170717,-0.995245,-3.006316,-0.015908,0.397266,-0.152413,8.801790,0,0.003456687,0
1786468676.030535,0.000400,0.000966,-0.000850,-0.110840,0.017578,-0.993652,0.992009,0.021149,0.124376,-0.001187,-0.999607,0.008647,0.026646,0.000372,2.464172,14.289059,0.171857,-0.990758,-3.054070,-0.016268,0.403467,-0.152493,8.801380,0,0.003469591,0
1786468676.050620,0.000800,0.000433,-0.000717,-0.110596,0.017578,-0.993652,0.991967,0.021206,0.124700,-0.001191,-0.999597,0.008617,0.027060,0.000376,2.471096,14.326484,0.173068,-0.987311,-3.101478,-0.016429,0.411982,-0.151642,8.800957,0,0.003471857,0
1786468676.070424,0.000400,0.001099,-0.000450,-0.109375,0.017578,-0.993652,0.991925,0.021262,0.125027,-0.001193,-0.999586,0.008600,0.027448,0.000378,2.477858,14.364280,0.174464,-0.985453,-3.145908,-0.016290,0.421180,-0.151128,8.800537,0,0.003461551,0
1786468676.090518,0.000134,0.000833,-0.000450,-0.109863,0.017334,-0.993652,0.991882,0.021316,0.125353,-0.001195,-0.999576,0.008559,0.027837,0.000380,2.484434,14.401929,0.175849,-0.980684,-3.190558,-0.016245,0.428336,-0.151098,8.800125,0,0.003466234,0
1786468676.110618,0.000933,0.000966,-0.000717,-0.110352,0.017578,-0.992920,0.991840,0.021374,0.125680,-0.001199,-0.999565,0.008556,0.028227,0.000384,2.491449,14.439657,0.177089,-0.980390,-3.235235,-0.016357,0.435456,-0.149872,8.800453,0,0.003469970,0
1786468676.130330,0.000400,0.000566,-0.000583,-0.111084,0.017578,-0.993164,0.991797,0.021429,0.126005,-0.001203,-0.999554,0.008558,0.028622,0.000387,2.498165,14.477154,0.178399,-0.980576,-3.280512,-0.016296,0.442441,-0.149922,8.799775,0,0.003456221,0
1786468676.151070,0.000267,0.000966,-0.000450,-0.110596,0.017822,-0.993652,0.991755,0.021484,0.126331,-0.001205,-0.999542,0.008592,0.029003,0.000389,2.504863,14.514870,0.179811,-0.984561,-3.324231,-0.016026,0.450582,-0.149726,8.798850,0,0.003489741,0
1786468676.171054,-0.000133,0.000833,-0.000717,-0.110840,0.017822,-0.993408,0.991712,0.021537,0.126657,-0.001208,-0.999531,0.008622,0.029383,0.000394,2.511290,14.552517,0.181066,-0.987935,-3.367785,-0.016070,0.457845,-0.150477,8.798648,0,0.003482741,0
1786468676.190531,0.000267,0.000966,-0.000850,-0.109863,0.017090,-0.993164,0.991669,0.021591,0.126984,-0.001213,-0.999521,0.008547,0.029743,0.000399,2.517869,14.590255,0.182235,-0.979390,-3.409088,-0.016608,0.466245,-0.151700,8.798450,0,0.003455861,0
1786468676.210128,0.000533,0.001099,-0.000983,-0.110107,0.017822,-0.993408,0.991626,0.021647,0.127311,-0.001218,-0.999510,0.008587,0.030100,0.000406,2.524655,14.628060,0.183352,-0.983891,-3.450050,-0.016908,0.473034,-0.149448,8.797816,0,0.003440707,0
1786468676.230191,0.000400,0.000833,-0.000450,-0.109863,0.018311,-0.993896,0.991583,0.021703,0.127637,-0.001220,-0.999498,0.008680,0.030453,0.000408,2.531501,14.665689,0.184796,-0.994657,-3.490492,-0.016439,0.480325,-0.149751,8.796892,0,0.003449122,0
1786468676.250335,0.000666,0.000566,-0.000717,-0.110352,0.018066,-0.993408,0.991540,0.021760,0.127962,-0.001224,-0.999487,0.008716,0.030809,0.000412,2.538425,14.703177,0.186072,-0.998801,-3.531247,-0.016458,0.486801,-0.151771,8.796927,0,0.003458956,0
1786468676.270266,0.000800,0.000699,-0.000317,-0.109863,0.017578,-0.993164,0.991496,0.021818,0.128287,-0.001226,-0.999477,0.008680,0.031152,0.000412,2.545447,14.740739,0.187582,-0.994660,-3.570565,-0.016284,0.494228,-0.152940,8.796734,0,0.003457286,0
1786468676.290930,0.000666,0.001099,-0.001116,-0.109619,0.017822,-0.993164,0.991453,0.021875,0.128614,-0.001232,-0.999466,0.008687,0.031485,0.000421,2.552307,14.778545,0.188642,-0.995484,-3.608797,-0.016931,0.501108,-0.151992,8.796334,0,0.003487307,0
1786468676.310706,0.000800,0.001099,-0.000317,-0.110107,0.018066,-0.993652,0.991409,0.021933,0.128941,-0.001234,-0.999456,0.008723,0.031818,0.000422,2.559383,14.816326,0.190184,-0.999612,-3.647007,-0.016507,0.507159,-0.151872,8.795434,0,0.003472021,0
1786468676.330797,0.000800,0.000566,-0.000583,-0.110352,0.017090,-0.993896,0.991365,0.021990,0.129266,-0.001238,-0.999446,0.008621,0.032152,0.000425,2.566313,14.853827,0.191532,-0.987918,-3.685247,-0.016897,0.513547,-0.153541,8.794757,0,0.003473951,0
1786468676.350850,0.000400,0.000966,-0.000317,-0.110107,0.017822,-0.993652,0.991321,0.022045,0.129592,-0.001239,-0.999435,0.008647,0.032476,0.000425,2.573139,14.891535,0.193074,-0.990927,-3.722469,-0.016542,0.520246,-0.150885,8.794621,0,0.003473765,0
1786468676.371146,0.000800,0.000699,-0.000717,-0.110840,0.018066,-0.993896,0.991278,0.022103,0.129917,-0.001243,-0.999424,0.008695,0.032807,0.000430,2.580146,14.929098,0.194381,-0.996363,-3.760380,-0.016547,0.525925,-0.151063,8.793955,0,0.003484038,0
1786468676.390202,0.000267,0.000966,-0.000051,-0.110107,0.017578,-0.993408,0.991234,0.022158,0.130244,-0.001244,-0.999414,0.008673,0.033121,0.000428,2.586917,14.966804,0.196084,-0.993837,-3.796327,-0.016085,0.533091,-0.152590,8.794004,0,0.003438873,0
1786468676.410666,0.000666,0.000300,-0.000450,-0.110596,0.017822,-0.993652,0.991190,0.022215,0.130567,-0.001246,-0.999403,0.008685,0.033442,0.000429,2.593870,15.004134,0.197541,-0.995225,-3.833195,-0.015935,0.538865,-0.151818,8.793356,0,0.003464834,0
1786468676.430114,0.000400,0.000833,-0.000317,-0.110107,0.017822,-0.993896,0.991146,0.022271,0.130893,-0.001248,-0.999392,0.008697,0.033748,0.000430,2.600705,15.041765,0.199099,-0.996598,-3.868247,-0.015650,0.545553,-0.152107,8.792693,0,0.003441175,0
1786468676.450146,0.000001,0.001365,-0.000983,-0.109863,0.017822,-0.993408,0.991101,0.022324,0.131221,-0.001253,-0.999382,0.008710,0.034042,0.000438,2.607220,15.079718,0.200283,-0.998146,-3.901992,-0.016165,0.551679,-0.152402,8.792780,0,0.003448141,0
1786468676.470493,0.000267,0.000699,-0.000850,-0.110596,0.017578,-0.993408,0.991057,0.022379,0.131546,-0.001257,-0.999372,0.008686,0.034346,0.000444,2.613867,15.117290,0.201523,-0.995362,-3.936842,-0.016658,0.556839,-0.152852,8.792377,0,0.003466859,0
1786468676.490298,0.000800,0.001099,-0.000450,-0.109863,0.017578,-0.993408,0.991012,0.022436,0.131873,-0.001260,-0.999362,0.008666,0.034634,0.000445,2.620898,15.155080,0.203018,-0.993112,-3.969901,-0.016661,0.563449,-0.152273,8.791984,0,0.003457858,0
1786468676.511207,0.000800,0.000433,-0.000450,-0.109375,0.017578,-0.993652,0.990967,0.022494,0.132197,-0.001263,-0.999353,0.008652,0.034921,0.000448,2.627935,15.192488,0.204503,-0.991528,-4.002817,-0.016669,0.569708,-0.151873,8.791348,0,0.003498251,0
1786468676.531019,0.000666,0.001365,-0.000850,-0.109863,0.017822,-0.993896,0.990922,0.022551,0.132525,-0.001267,-0.999343,0.008675,0.035200,0.000453,2.634860,15.230435,0.205785,-0.994117,-4.034763,-0.016977,0.574668,-0.151381,8.790729,0,0.003481782,0
1786468676.550690,0.000800,0.000966,-0.000717,-0.109863,0.018066,-0.992676,0.990877,0.022608,0.132852,-0.001271,-0.999332,0.008726,0.035480,0.000458,2.641906,15.268146,0.207147,-0.999977,-4.066833,-0.017001,0.580202,-0.151549,8.791554,0,0.003463352,0
1786468676.570309,0.000533,0.001232,-0.000583,-0.110352,0.017822,-0.993408,0.990832,0.022665,0.133179,-0.001274,-0.999322,0.008732,0.035755,0.000461,2.648792,15.306010,0.208591,-1.000642,-4.098433,-0.017073,0.585140,-0.152841,8.790419,0,0.003447308,0
1786468676.591395,0.000400,0.000699,-0.000583,-0.109619,0.018066,-0.993896,0.990787,0.022721,0.133504,-0.001278,-0.999312,0.008770,0.036026,0.000465,2.655638,15.343564,0.210036,-1.004990,-4.129517,-0.017070,0.591361,-0.152722,8.789536,0,0.003497809,0
1786468676.610453,0.000666,0.001365,-0.000583,-0.110107,0.017578,-0.993896,0.990741,0.022777,0.133832,-0.001281,-0.999303,0.008732,0.036290,0.000468,2.662585,15.381507,0.211488,-1.000637,-4.159701,-0.017317,0.596071,-0.153906,8.789150,0,0.003449294,0
1786468676.630473,0.001066,0.001232,-0.000450,-0.109863,0.017578,-0.994141,0.990696,0.022836,0.134160,-0.001284,-0.999294,0.008701,0.036547,0.000470,2.669788,15.419371,0.213022,-0.997142,-4.189270,-0.017406,0.601483,-0.153073,8.788547,0,0.003453795,0
1786468676.650845,0.000001,0.000833,-0.000850,-0.109863,0.018066,-0.993164,0.990650,0.022890,0.134486,-0.001288,-0.999284,0.008754,0.036808,0.000476,2.676367,15.457007,0.214326,-1.003134,-4.219196,-0.017659,0.606609,-0.152184,8.789156,0,0.003472165,0
1786468676.670275,0.000533,0.000833,-0.000717,-0.110107,0.017822,-0.993896,0.990605,0.022946,0.134811,-0.001292,-0.999274,0.008755,0.037066,0.000481,2.683245,15.494644,0.215706,-1.003270,-4.248710,-0.017914,0.611481,-0.153346,8.788031,0,0.003445901,0
1786468676.690226,0.000134,0.000833,-0.000717,-0.109619,0.017090,-0.993408,0.990559,0.023000,0.135137,-0.001295,-0.999266,0.008665,0.037313,0.000486,2.689830,15.532292,0.217073,-0.992963,-4.277126,-0.018611,0.617005,-0.154170,8.788145,0,0.003448301,0
1786468676.710463,0.000134,0.000966,-0.000184,-0.110596,0.017578,-0.993652,0.990513,0.023054,0.135463,-0.001296,-0.999256,0.008662,0.037567,0.000485,2.696536,15.569995,0.218774,-0.992628,-4.306216,-0.018324,0.620850,-0.151923,8.787572,0,0.003462247,0
1786468676.730194,-0.000133,0.001099,-0.000850,-0.110596,0.018066,-0.994141,0.990467,0.023107,0.135790,-0.001300,-0.999246,0.008725,0.037816,0.000491,2.703036,15.607784,0.220101,-0.999857,-4.334801,-0.018516,0.625798,-0.151413,8.786713,0,0.003451261,0
1786468676.750255,0.000400,0.001099,-0.000450,-0.110352,0.017822,-0.993896,0.990421,0.023163,0.136117,-0.001303,-0.999237,0.008737,0.038059,0.000494,2.709886,15.645565,0.221665,-1.001244,-4.362640,-0.018471,0.630918,-0.152787,8.786569,0,0.003457001,0
1786468676.770183,-0.000133,0.000300,-0.000850,-0.110352,0.018311,-0.993652,0.990375,0.023216,0.136439,-0.001307,-0.999227,0.008815,0.038308,0.000500,2.716412,15.682892,0.222987,-1.010171,-4.391141,-0.018600,0.635829,-0.152627,8.786434,0,0.003455715,0
1786468676.790165,0.000134,0.000699,-0.000583,-0.110107,0.017578,-0.994141,0.990329,0.023270,0.136764,-0.001310,-0.999218,0.008774,0.038544,0.000504,2.723069,15.720451,0.224465,-1.005484,-4.418223,-0.018956,0.640859,-0.154829,8.785554,0,0.003456994,0
1786468676.810217,0.001066,0.001099,-0.000583,-0.109863,0.017578,-0.993408,0.990283,0.023329,0.137091,-0.001313,-0.999210,0.008740,0.038771,0.000507,2.730269,15.758239,0.225960,-1.001544,-4.444330,-0.019261,0.645648,-0.153840,8.785954,0,0.003460973,0
1786468676.830496,0.000400,0.000833,-0.000717,-0.110596,0.017578,-0.993164,0.990236,0.023384,0.137416,-0.001317,-0.999201,0.008720,0.039006,0.000512,2.737055,15.795878,0.227370,-0.999216,-4.471230,-0.019682,0.649423,-0.153288,8.785858,0,0.003473629,0
1786468676.850508,0.000533,0.001099,-0.000450,-0.110352,0.017822,-0.993896,0.990190,0.023440,0.137743,-0.001319,-0.999192,0.008735,0.039232,0.000514,2.743993,15.833658,0.228959,-1.001026,-4.497163,-0.019636,0.654208,-0.152620,8.784779,0,0.003471825,0
1786468676.870215,0.000933,0.001365,-0.000717,-0.110107,0.018066,-0.993652,0.990143,0.023499,0.138071,-0.001323,-0.999183,0.008778,0.039451,0.000519,2.751149,15.871592,0.230409,-1.005850,-4.522228,-0.019759,0.658832,-0.152600,8.784676,0,0.003457426,0
1786468676.890667,0.000400,0.000833,-0.000717,-0.110107,0.018066,-0.993652,0.990096,0.023554,0.138396,-0.001327,-0.999174,0.008813,0.039671,0.000524,2.757999,15.909221,0.231850,-1.009902,-4.547539,-0.019956,0.663207,-0.153516,8.784315,0,0.003478322,0
1786468676.910141,0.000400,0.000566,-0.000450,-0.110352,0.017334,-0.992188,0.990049,0.023609,0.138721,-0.001330,-0.999166,0.008746,0.039893,0.000526,2.764816,15.946703,0.233425,-1.002266,-4.572953,-0.020279,0.667340,-0.154942,8.785420,0,0.003452392,0
1786468676.930211,0.001199,0.001232,-0.000850,-0.110107,0.017334,-0.993652,0.990002,0.023668,0.139048,-0.001335,-0.999158,0.008689,0.040101,0.000532,2.772037,15.984576,0.234788,-0.995681,-4.596858,-0.021024,0.671790,-0.153467,8.783646,0,0.003458266,0
1786468676.951323,0.000800,0.000699,-0.000717,-0.110840,0.018066,-0.993652,0.989955,0.023726,0.139373,-0.001339,-0.999148,0.008746,0.040322,0.000537,2.779110,16.022129,0.236236,-1.002189,-4.622139,-0.021126,0.675234,-0.151677,8.783330,0,0.003507217,0
1786468676.970573,0.000533,0.001099,-0.000717,-0.110107,0.017578,-0.993408,0.989907,0.023782,0.139699,-0.001343,-0.999140,0.008728,0.040527,0.000542,2.786000,16.059917,0.237691,-1.000087,-4.645645,-0.021540,0.680218,-0.153336,8.783211,0,0.003464504,0
1786468676.990314,0.000666,0.000966,-0.000583,-0.109863,0.017334,-0.993164,0.989860,0.023839,0.140025,-0.001346,-0.999132,0.008683,0.040727,0.000545,2.792970,16.097629,0.239221,-0.994916,-4.668615,-0.021950,0.684494,-0.153189,8.783135,0,0.003453350,0
1786468677.010426,0.000533,0.000566,-0.000450,-0.110107,0.017822,-0.992920,0.989813,0.023895,0.140349,-0.001348,-0.999124,0.008715,0.040932,0.000547,2.799929,16.135100,0.240835,-0.998675,-4.692141,-0.021852,0.688244,-0.151838,8.783069,0,0.003460775,0
1786468677.030640,0.000800,0.000833,-0.000717,-0.110107,0.017334,-0.993652,0.989765,0.023952,0.140674,-0.001353,-0.999116,0.008672,0.041130,0.000552,2.806953,16.172739,0.242291,-0.993698,-4.714827,-0.022423,0.692207,-0.152905,8.782002,0,0.003470729,0
1786468677.050171,0.000533,0.000966,-0.000450,-0.110596,0.017334,-0.994141,0.989717,0.024008,0.141000,-0.001355,-0.999108,0.008642,0.041327,0.000554,2.813865,16.210447,0.243912,-0.990178,-4.737465,-0.022623,0.695569,-0.152111,8.781210,0,0.003449125,0
1786468677.070414,0.000267,0.000966,-0.000717,-0.110107,0.017578,-0.993164,0.989670,0.024062,0.141326,-0.001359,-0.999100,0.008656,0.041519,0.000560,2.820614,16.248157,0.245388,-0.991840,-4.759476,-0.022958,0.699914,-0.151305,8.781878,0,0.003463136,0
1786468677.090916,0.000800,0.000833,-0.000717,-0.110596,0.018799,-0.993164,0.989622,0.024121,0.141651,-0.001363,-0.999090,0.008823,0.041717,0.000565,2.827781,16.285771,0.246896,-1.011050,-4.782208,-0.022532,0.703206,-0.150255,8.781561,0,0.003484829,0
1786468677.113528,0.000400,0.000833,-0.000717,-0.110107,0.017822,-0.993896,0.989574,0.024176,0.141977,-0.001367,-0.999082,0.008820,0.041906,0.000570,2.834635,16.323401,0.248385,-1.010624,-4.803882,-0.023040,0.707556,-0.154573,8.780448,0,0.003592055,0
1786468677.130234,0.000533,0.001232,-0.000717,-0.109863,0.017334,-0.994141,0.989525,0.024232,0.142304,-0.001370,-0.999076,0.008754,0.042083,0.000574,2.841527,16.361266,0.249878,-1.003043,-4.824229,-0.023629,0.711480,-0.154988,8.779897,0,0.003419244,0
1786468677.150194,0.000267,0.000566,-0.000850,-0.110840,0.018066,-0.993896,0.989477,0.024287,0.142628,-0.001375,-0.999067,0.008802,0.042274,0.000581,2.848296,16.398743,0.251293,-1.008547,-4.846086,-0.023935,0.714066,-0.152988,8.779863,0,0.003428555,0
1786468677.170932,0.000800,0.000966,-0.000583,-0.110352,0.017822,-0.993164,0.989429,0.024344,0.142953,-0.001378,-0.999059,0.008804,0.042454,0.000585,2.855405,16.436444,0.252879,-1.008797,-4.866750,-0.024176,0.718198,-0.154060,8.780273,0,0.003468657,0
1786468677.190612,0.000400,0.000833,-0.000717,-0.109619,0.017822,-0.993652,0.989381,0.024400,0.143279,-0.001382,-0.999052,0.008810,0.042626,0.000590,2.862276,16.474071,0.254390,-1.009389,-4.886480,-0.024552,0.722491,-0.154180,8.779480,0,0.003453897,0
1786468677.210433,0.000267,0.000833,-0.000450,-0.110107,0.018066,-0.993652,0.989332,0.024455,0.143604,-0.001384,-0.999044,0.008846,0.042800,0.000592,2.869134,16.511687,0.256069,-1.013603,-4.906453,-0.024479,0.725367,-0.154062,8.779190,0,0.003448806,0
1786468677.231066,0.000400,0.000167,-0.000583,-0.110107,0.017822,-0.993652,0.989284,0.024511,0.143925,-0.001387,-0.999037,0.008841,0.042978,0.000596,2.876019,16.548930,0.257648,-1.012944,-4.926881,-0.024775,0.728902,-0.154988,8.778876,0,0.003479557,0
1786468677.251223,0.000666,0.000433,-0.000983,-0.110107,0.018066,-0.992920,0.989236,0.024567,0.144248,-0.001393,-0.999029,0.008869,0.043153,0.000604,2.883017,16.586332,0.259007,-1.016150,-4.946885,-0.025344,0.732337,-0.154569,8.779316,0,0.003482451,0
1786468677.271702,0.000533,0.000833,-0.000850,-0.110596,0.018066,-0.992920,0.989187,0.024624,0.144573,-0.001397,-0.999021,0.008890,0.043325,0.000610,2.889959,16.623958,0.260461,-1.018595,-4.966648,-0.025814,0.735179,-0.155137,8.779018,0,0.003498415,0
1786468677.290623,0.000267,0.000833,-0.000717,-0.111084,0.018066,-0.993652,0.989138,0.024678,0.144898,-0.001401,-0.999014,0.008906,0.043497,0.000615,2.896766,16.661582,0.261997,-1.020420,-4.986438,-0.026103,0.738074,-0.155609,8.777984,0,0.003443913,0
1786468677.310346,-0.000133,0.001365,-0.000583,-0.110596,0.017334,-0.994141,0.989088,0.024731,0.145226,-0.001403,-0.999007,0.008825,0.043655,0.000619,2.903312,16.699517,0.263616,-1.011089,-5.004540,-0.026808,0.741828,-0.156724,8.777204,0,0.003437101,0
1786468677.331159,0.000800,0.000966,-0.000983,-0.110107,0.017822,-0.993164,0.989039,0.024788,0.145552,-0.001409,-0.999001,0.008825,0.043813,0.000627,2.910376,16.737226,0.265004,-1.011099,-5.022683,-0.027569,0.745472,-0.154444,8.777937,0,0.003478362,0
1786468677.350268,0.000400,0.000699,-0.000583,-0.109863,0.017578,-0.993408,0.988990,0.024844,0.145876,-0.001412,-0.998994,0.008797,0.043969,0.000631,2.917261,16.774775,0.266623,-1.007870,-5.040494,-0.027967,0.748875,-0.154781,8.777414,0,0.003436914,0
1786468677.370762,0.000400,0.000833,-0.000583,-0.109375,0.017822,-0.993652,0.988940,0.024899,0.146201,-0.001415,-0.998987,0.008809,0.044117,0.000635,2.924180,16.812396,0.268260,-1.009212,-5.057481,-0.028224,0.752365,-0.153975,8.776915,0,0.003464622,0
1786468677.390199,0.000267,0.000699,-0.000317,-0.110596,0.017578,-0.993652,0.988891,0.024954,0.146525,-0.001417,-0.998981,0.008786,0.044274,0.000636,2.931028,16.849937,0.270044,-1.006520,-5.075485,-0.028316,0.754074,-0.154478,8.776652,0,0.003440497,0
1786468677.410674,0.000933,0.000566,-0.000583,-0.110596,0.018066,-0.993408,0.988842,0.025012,0.146849,-0.001420,-0.998973,0.008828,0.044431,0.000639,2.938259,16.887401,0.271684,-1.011411,-5.093586,-0.028366,0.757165,-0.153385,8.776633,0,0.003466537,0
1786468677.430343,0.000933,0.000433,-0.000717,-0.110596,0.017334,-0.993408,0.988792,0.025070,0.147172,-0.001425,-0.998967,0.008764,0.044586,0.000644,2.945399,16.924805,0.273225,-1.004026,-5.111349,-0.029091,0.760283,-0.154952,8.776341,0,0.003451856,0
1786468677.450149,0.000400,0.000699,-0.000317,-0.110107,0.018066,-0.994141,0.988742,0.025126,0.147496,-0.001426,-0.998960,0.008817,0.044733,0.000646,2.952387,16.962336,0.275041,-1.010042,-5.128194,-0.028816,0.763747,-0.153065,8.775363,0,0.003446573,0
1786468677.470970,0.000800,0.000699,-0.000583,-0.110596,0.018066,-0.993408,0.988693,0.025184,0.147820,-0.001430,-0.998953,0.008853,0.044883,0.000649,2.959552,16.999876,0.276700,-1.014257,-5.145392,-0.028926,0.766125,-0.153995,8.775822,0,0.003485908,0
1786468677.491044,0.001199,0.000433,-0.000717,-0.110107,0.017822,-0.993896,0.988643,0.025243,0.148143,-0.001434,-0.998946,0.008845,0.045028,0.000654,2.966907,17.037270,0.278272,-1.013336,-5.162051,-0.029383,0.769604,-0.154879,8.775054,0,0.003483723,0
1786468677.511445,0.000001,0.000699,-0.000583,-0.110596,0.018311,-0.993652,0.988593,0.025297,0.148467,-0.001437,-0.998939,0.008913,0.045174,0.000659,2.973644,17.074804,0.279949,-1.021115,-5.178815,-0.029365,0.771902,-0.154466,8.775045,0,0.003496001,0
1786468677.530463,0.000267,0.000566,-0.000583,-0.110107,0.017090,-0.993652,0.988543,0.025351,0.148791,-0.001440,-0.998934,0.008802,0.045312,0.000662,2.980426,17.112282,0.281594,-1.008307,-5.194587,-0.030235,0.775283,-0.156960,8.774761,0,0.003446217,0
1786468677.550556,0.000533,0.000300,-0.000583,-0.110840,0.017578,-0.993408,0.988493,0.025407,0.149113,-0.001443,-0.998927,0.008782,0.045458,0.000666,2.987395,17.149599,0.283247,-1.005990,-5.211345,-0.030635,0.777286,-0.154228,8.774796,0,0.003454614,0
1786468677.570424,-0.000133,0.001099,-0.000184,-0.109619,0.017822,-0.993408,0.988442,0.025460,0.149439,-0.001444,-0.998921,0.008806,0.045584,0.000666,2.994106,17.187356,0.285181,-1.008801,-5.225840,-0.030416,0.781209,-0.153722,8.774555,0,0.003451316,0
1786468677.590127,0.000400,0.000433,-0.000583,-0.110107,0.017334,-0.993164,0.988392,0.025516,0.149762,-0.001447,-0.998916,0.008756,0.045718,0.000670,3.000994,17.224752,0.286844,-1.003060,-5.241224,-0.030992,0.783323,-0.154576,8.774555,0,0.003441802,0
1786468677.610065,0.000267,0.000300,-0.000450,-0.109863,0.017822,-0.993896,0.988341,0.025571,0.150084,-0.001450,-0.998909,0.008784,0.045850,0.000673,3.007881,17.262060,0.288603,-1.006209,-5.256372,-0.031030,0.786215,-0.153132,8.773597,0,0.003444651,0
1786468677.630096,0.000533,0.000966,-0.000450,-0.109863,0.017822,-0.994141,0.988291,0.025627,0.150409,-0.001452,-0.998904,0.008802,0.045974,0.000676,3.014929,17.299748,0.290388,-1.008276,-5.270520,-0.031123,0.788667,-0.153612,8.773119,0,0.003450763,0
1786468677.650160,0.000400,0.000966,-0.000184,-0.110107,0.018066,-0.993164,0.988240,0.025683,0.150735,-0.001453,-0.998897,0.008850,0.046099,0.000676,3.021970,17.337424,0.292343,-1.013865,-5.284866,-0.030751,0.790834,-0.153747,8.773867,0,0.003456762,0
1786468677.670225,0.000666,0.000433,-0.000717,-0.109619,0.017822,-0.993652,0.988189,0.025740,0.151057,-0.001457,-0.998892,0.008852,0.046222,0.000681,3.029051,17.374814,0.293963,-1.014018,-5.299019,-0.031230,0.793874,-0.154878,8.773127,0,0.003461341,0
1786468677.690288,0.000400,0.000300,-0.000717,-0.109863,0.018066,-0.993408,0.988138,0.025795,0.151379,-0.001461,-0.998886,0.008888,0.046348,0.000687,3.036000,17.412124,0.295589,-1.018110,-5.313448,-0.031535,0.796069,-0.154708,8.773144,0,0.003464681,0
1786468677.710295,0.000933,0.000566,-0.000184,-0.109863,0.017578,-0.993408,0.988087,0.025854,0.151703,-0.001463,-0.998880,0.008846,0.046468,0.000687,3.043310,17.449578,0.297535,-1.013367,-5.327212,-0.031620,0.798475,-0.155796,8.772910,0,0.003464874,0
1786468677.730676,0.000533,0.000433,-0.000983,-0.110107,0.017578,-0.992676,0.988036,0.025909,0.152025,-0.001468,-0.998875,0.008820,0.046590,0.000695,3.050245,17.486980,0.299001,-1.010323,-5.341300,-0.032578,0.800605,-0.155045,8.773434,0,0.003480922,0
1786468677.750293,0.000400,0.000566,-0.000717,-0.109863,0.016846,-0.993896,0.987985,0.025964,0.152349,-0.001472,-0.998871,0.008704,0.046705,0.000700,3.057090,17.524461,0.300617,-0.996952,-5.354469,-0.033699,0.803227,-0.155289,8.772000,0,0.003460415,0
1786468677.770591,0.000400,0.000833,-0.000450,-0.110596,0.017822,-0.993408,0.987933,0.026020,0.152673,-0.001474,-0.998865,0.008748,0.046825,0.000703,3.064069,17.562071,0.302430,-1.001928,-5.368206,-0.033671,0.804682,-0.152032,8.772324,0,0.003474051,0
1786468677.790230,0.000400,0.000833,-0.000583,-0.110596,0.018066,-0.993652,0.987881,0.026075,0.152998,-0.001477,-0.998858,0.008811,0.046943,0.000707,3.071049,17.599680,0.304175,-1.009237,-5.381757,-0.033670,0.807030,-0.152632,8.771844,0,0.003456208,0
1786468677.810162,0.000400,0.001099,-0.000583,-0.110107,0.018555,-0.993408,0.987829,0.026131,0.153324,-0.001480,-0.998852,0.008924,0.047054,0.000711,3.078088,17.637434,0.305951,-1.022156,-5.394461,-0.033429,0.809774,-0.153385,8.771855,0,0.003455257,0
1786468677.830490,0.000400,0.000966,-0.000317,-0.109863,0.017822,-0.993896,0.987777,0.026187,0.153649,-0.001482,-0.998847,0.008910,0.047159,0.000713,3.085113,17.675114,0.307867,-1.020563,-5.406591,-0.033582,0.812205,-0.156318,8.771121,0,0.003471396,0
1786468677.850150,0.000533,0.000566,-0.000317,-0.109863,0.017334,-0.993896,0.987726,0.026243,0.153972,-0.001484,-0.998843,0.008835,0.047267,0.000714,3.092167,17.712573,0.309762,-1.011960,-5.418877,-0.034045,0.814355,-0.156509,8.770923,0,0.003455117,0
1786468677.870906,0.000533,0.001232,-0.000317,-0.109863,0.018066,-0.994141,0.987673,0.026300,0.154298,-0.001486,-0.998838,0.008876,0.047367,0.000716,3.099299,17.750401,0.311705,-1.016653,-5.430437,-0.033912,0.816309,-0.154301,8.770520,0,0.003489602,0
