timestamp,gx,gy,gz,ax,ay,az,madgwick_qw,madgwick_qx,madgwick_qy,madgwick_qz,kalman_qw,kalman_qx,kalman_qy,kalman_qz,madgwick_roll_deg,madgwick_pitch_deg,madgwick_yaw_deg,kalman_roll_deg,kalman_pitch_deg,kalman_yaw_deg,robot_accel_x,robot_accel_y,robot_accel_z,kalman_converged,kalman_P_change,convergence_counter
1786467457.058076,0.000800,0.000566,-0.000717,-0.113525,0.016602,-0.993408,1.000000,0.000052,0.000329,-0.000004,0.999955,0.008855,0.003522,-0.000004,0.005930,0.037742,-0.000409,1.014704,0.403550,0.003138,-0.113581,0.016680,8.816592,0,0.087903733,0
1786467457.078182,0.001066,0.000433,-0.000450,-0.114014,0.017090,-0.993408,1.000000,0.000106,0.000658,-0.000006,0.999746,0.021714,0.006000,-0.000009,0.012147,0.075387,-0.000661,2.488550,0.687410,0.013936,-0.183195,0.191020,8.814806,0,0.031067425,0
1786467457.098250,0.000267,0.001365,-0.000583,-0.113770,0.016846,-0.992920,0.999999,0.000156,0.000991,-0.000009,0.999206,0.039069,0.007770,-0.000015,0.017844,0.113576,-0.000986,4.478488,0.889723,0.033100,-0.231736,0.442814,8.807118,0,0.016768189,0
1786467457.118002,0.000400,0.000566,-0.000450,-0.113281,0.016846,-0.992676,0.999999,0.000206,0.001320,-0.000011,0.998043,0.061908,0.008777,-0.000020,0.023640,0.151303,-0.001231,7.099463,1.004042,0.060043,-0.265727,0.782841,8.786185,0,0.011032794,0
1786467457.137940,0.000267,0.000167,-0.000450,-0.113770,0.017090,-0.992188,0.999999,0.000257,0.001648,-0.000013,0.995765,0.091514,0.008758,-0.000025,0.029414,0.188794,-0.001472,10.502647,0.999610,0.089056,-0.285713,1.229393,8.741099,0,0.008196079,0
1786467457.157676,0.000267,0.000833,-0.000317,-0.113281,0.016846,-0.992920,0.999998,0.000307,0.001978,-0.000015,0.991592,0.129207,0.007076,-0.000027,0.035136,0.226674,-0.001633,14.848623,0.804510,0.101668,-0.284592,1.804799,8.651248,0,0.006583487,0
1786467457.178149,0.000267,0.000699,-0.000450,-0.112793,0.017090,-0.993164,0.999997,0.000357,0.002308,-0.000017,0.984261,0.176702,0.002678,-0.000032,0.040957,0.264462,-0.001866,20.355597,0.302647,0.050664,-0.250693,2.530863,8.488293,0,0.005634181,0
1786467457.197911,0.000533,0.000699,-0.000184,-0.113770,0.017334,-0.993408,0.999996,0.000410,0.002638,-0.000018,0.971947,0.235121,-0.006052,-0.000032,0.046962,0.302246,-0.001943,27.198945,-0.673246,-0.166679,-0.165727,3.429748,8.203810,0,0.004981907,0
1786467457.217474,0.000533,0.000833,-0.000583,-0.114258,0.017090,-0.992920,0.999995,0.000461,0.002968,-0.000021,0.952276,0.304482,-0.021454,-0.000036,0.052869,0.340120,-0.002245,35.477822,-2.340572,-0.753118,0.000817,4.500842,7.731690,0,0.004532890,0
1786467457.237474,0.000800,0.000433,-0.000583,-0.113525,0.016846,-0.993164,0.999994,0.000514,0.003297,-0.000024,0.922613,0.382915,-0.046497,-0.000039,0.058888,0.377772,-0.002544,45.168355,-4.920140,-2.052347,0.286973,5.705832,6.988762,0,0.004241776,0
1786467457.257503,0.000134,0.000966,-0.000717,-0.114014,0.017334,-0.993408,0.999993,0.000564,0.003628,-0.000027,0.881062,0.465473,-0.084051,-0.000040,0.064653,0.415709,-0.002915,56.034162,-8.515119,-4.542033,0.727130,6.948799,5.897409,0,0.004036488,0
1786467457.277824,0.001066,0.000566,-0.000583,-0.113281,0.016602,-0.992676,0.999992,0.000618,0.003957,-0.000030,0.828010,0.543987,-0.135933,-0.000039,0.070765,0.453446,-0.003207,67.605923,-13.006726,-8.734290,1.339132,8.063178,4.427583,0,0.003901595,0
1786467457.297471,0.000267,0.000167,-0.000583,-0.113525,0.016846,-0.992920,0.999991,0.000668,0.004284,-0.000033,0.767029,0.609241,-0.201228,-0.000039,0.076484,0.490943,-0.003495,79.296050,-17.977747,-14.941945,2.094253,8.854365,2.648517,0,0.003773315,0
1786467457.317705,0.000400,0.000833,-0.000717,-0.114014,0.016602,-0.993408,0.999989,0.000717,0.004615,-0.000037,0.703387,0.654702,-0.276789,-0.000034,0.082184,0.528836,-0.003856,90.652786,-22.913161,-23.174190,2.913657,9.185340,0.739664,0,0.003704990,0
1786467457.338420,0.000533,0.000566,-0.000450,-0.113770,0.017090,-0.992920,0.999987,0.000769,0.004944,-0.000039,0.642228,0.677840,-0.357877,-0.000028,0.088119,0.566553,-0.004060,101.370131,-27.363848,-33.115868,3.705529,9.052490,-1.095922,0,0.003675381,0
1786467457.357912,0.000666,0.000433,-0.000983,-0.113770,0.017578,-0.993164,0.999986,0.000823,0.005272,-0.000044,0.587416,0.679878,-0.438986,-0.000024,0.094273,0.604172,-0.004563,111.204024,-31.044380,-44.165813,4.395145,8.558971,-2.710837,0,0.003600104,0
1786467457.377492,0.000800,0.000433,-0.000450,-0.113281,0.017090,-0.993164,0.999984,0.000876,0.005601,-0.000046,0.540202,0.664557,-0.516280,-0.000017,0.100385,0.641808,-0.004759,120.108836,-33.901621,-55.768121,4.945711,7.852957,-4.033211,0,0.003548013,0
1786467457.397721,0.000533,0.000699,-0.000583,-0.113770,0.017090,-0.993652,0.999982,0.000928,0.005931,-0.000049,0.500141,0.636250,-0.587405,-0.000011,0.106325,0.679600,-0.005028,128.138047,-35.983876,-67.480915,5.357915,7.060773,-5.078171,0,0.003537043,0
1786467457.417529,0.000533,0.000566,-0.000317,-0.112549,0.017334,-0.993408,0.999980,0.000981,0.006259,-0.000051,0.466589,0.599010,-0.650755,-0.000005,0.112393,0.717296,-0.005138,135.285571,-37.391984,-78.894334,5.651407,6.260817,-5.895636,0,0.003510685,0
1786467457.437956,0.000134,0.000433,-0.000717,-0.114258,0.016357,-0.992188,0.999978,0.001029,0.006588,-0.000055,0.438123,0.556195,-0.706183,-0.000004,0.117873,0.754969,-0.005479,141.653850,-38.227553,-89.809609,5.842978,5.500112,-6.530769,0,0.003517462,0
1786467457.457533,0.000800,0.000566,-0.000450,-0.113770,0.017334,-0.993408,0.999975,0.001083,0.006917,-0.000057,0.413985,0.510773,-0.753477,0.000002,0.124038,0.792672,-0.005659,147.240417,-38.598478,-99.980783,5.956548,4.798389,-7.037318,0,0.003486175,0
1786467457.477956,0.000134,0.000566,-0.000450,-0.114014,0.017090,-0.992676,0.999973,0.001133,0.007246,-0.000059,0.393076,0.464553,-0.793525,0.000004,0.129743,0.830388,-0.005836,152.142244,-38.596704,-109.381329,6.006078,4.165792,-7.440066,0,0.003498804,0
1786467457.497929,0.000533,0.000300,-0.000450,-0.113525,0.017090,-0.993896,0.999971,0.001185,0.007574,-0.000061,0.374776,0.419164,-0.826949,0.000006,0.135698,0.867947,-0.006010,156.399060,-38.304869,-117.940771,6.006301,3.599725,-7.772432,0,0.003489069,0
1786467457.517513,0.000800,0.000566,-0.000450,-0.113525,0.016846,-0.993896,0.999968,0.001237,0.007903,-0.000064,0.358450,0.375727,-0.854601,0.000011,0.141738,0.905669,-0.006181,160.074831,-37.782958,-125.654477,5.967212,3.098847,-8.048115,0,0.003465139,0
1786467457.537952,0.000800,0.000566,-0.000450,-0.113770,0.016846,-0.992676,0.999965,0.001290,0.008232,-0.000066,0.343503,0.334751,-0.877466,0.000015,0.147769,0.943392,-0.006348,163.249369,-37.073191,-132.584179,5.896603,2.659018,-8.281739,0,0.003483631,0
1786467457.557555,0.000267,0.000699,0.000082,-0.114258,0.016846,-0.992920,0.999962,0.001340,0.008562,-0.000066,0.329629,0.296814,-0.896240,0.000016,0.153481,0.981193,-0.006206,165.965379,-36.218248,-138.742300,5.799657,2.272611,-8.487800,0,0.003461864,0
1786467457.577495,0.000400,0.000833,-0.000450,-0.114014,0.017090,-0.992920,0.999959,0.001391,0.008893,-0.000068,0.316567,0.262040,-0.911658,0.000016,0.159343,1.019059,-0.006364,168.279847,-35.254526,-144.191514,5.682459,1.936396,-8.671023,0,0.003459884,0
1786467457.597502,0.000400,0.000300,-0.000450,-0.113525,0.016846,-0.992920,0.999956,0.001442,0.009221,-0.000070,0.304115,0.230410,-0.924351,0.000016,0.165159,1.056626,-0.006521,170.245526,-34.209804,-148.998275,5.548934,1.644083,-8.836691,0,0.003461204,0
1786467457.617658,0.000267,0.000966,-0.000317,-0.113525,0.016602,-0.993164,0.999953,0.001491,0.009552,-0.000072,0.292070,0.201859,-0.934852,0.000016,0.170832,1.094585,-0.006597,171.910501,-33.099225,-153.223339,5.402048,1.391103,-8.988494,0,0.003468573,0
1786467457.637519,0.000533,0.000433,-0.000317,-0.113281,0.016357,-0.993408,0.999950,0.001542,0.009880,-0.000073,0.280338,0.176309,-0.943571,0.000016,0.176601,1.132246,-0.006671,173.312573,-31.940854,-156.916464,5.243931,1.172753,-9.129693,0,0.003461536,0
1786467457.657720,0.000533,0.001099,-0.000717,-0.113281,0.017090,-0.993164,0.999947,0.001594,0.010212,-0.000077,0.268786,0.153651,-0.950866,0.000017,0.182568,1.170259,-0.006966,174.487423,-30.741423,-160.125339,5.076806,0.986512,-9.261134,0,0.003470725,0
1786467457.677990,0.000800,0.000300,-0.000184,-0.113525,0.016846,-0.993896,0.999943,0.001647,0.010540,-0.000078,0.257322,0.133566,-0.957050,0.000020,0.188619,1.207825,-0.006955,175.472329,-29.508009,-162.917228,4.901046,0.826697,-9.386412,0,0.003480658,0
1786467457.698195,0.000800,0.000034,-0.000583,-0.113525,0.017090,-0.992920,0.999940,0.001700,0.010866,-0.000081,0.245910,0.115924,-0.962336,0.000021,0.194732,1.245228,-0.007168,176.291735,-28.248781,-165.328943,4.718341,0.690965,-9.503799,0,0.003485307,0
1786467457.718188,0.000400,0.000167,-0.000717,-0.113281,0.016846,-0.993896,0.999936,0.001751,0.011193,-0.000085,0.234577,0.100461,-0.966893,0.000019,0.200561,1.282715,-0.007454,176.970742,-26.976521,-167.409612,4.529822,0.575752,-9.617429,0,0.003479780,0
1786467457.738701,0.000400,0.000433,-0.000317,-0.113770,0.016846,-0.993164,0.999932,0.001802,0.011522,-0.000086,0.223180,0.086959,-0.970891,0.000018,0.206376,1.320357,-0.007508,177.533721,-25.681590,-169.201509,4.336370,0.478813,-9.723510,0,0.003497846,0
1786467457.757875,0.000400,0.000300,-0.000450,-0.113525,0.017578,-0.992920,0.999928,0.001854,0.011849,-0.000089,0.211846,0.075374,-0.974392,0.000017,0.212397,1.357890,-0.007630,177.992659,-24.383630,-170.719623,4.137877,0.397985,-9.825641,0,0.003454250,0
1786467457.777527,0.000800,0.000167,-0.000317,-0.113770,0.017334,-0.993652,0.999924,0.001908,0.012176,-0.000090,0.200490,0.065338,-0.977515,0.000019,0.218574,1.395359,-0.007673,178.370422,-23.076855,-172.019301,3.936260,0.330189,-9.923125,0,0.003441867,0
1786467457.798859,0.000800,0.000300,-0.001116,-0.114014,0.015869,-0.993164,0.999920,0.001959,0.012504,-0.000096,0.189002,0.056481,-0.980351,0.000020,0.224343,1.432963,-0.008181,178.685253,-21.751290,-173.152662,3.731220,0.272457,-10.014497,0,0.003504207,0
1786467457.818695,0.000400,0.000833,-0.000850,-0.113281,0.016846,-0.993896,0.999916,0.002009,0.012835,-0.000100,0.177585,0.048995,-0.982885,0.000018,0.230176,1.470830,-0.008524,178.938136,-20.431906,-174.101158,3.522240,0.225896,-10.102979,0,0.003487302,0
1786467457.838697,0.000800,0.000699,-0.000583,-0.113281,0.017334,-0.993164,0.999911,0.002064,0.013164,-0.000103,0.166130,0.042647,-0.985181,0.000020,0.236371,1.508600,-0.008707,179.143158,-19.107279,-174.898376,3.311457,0.187588,-10.184371,0,0.003481639,0
1786467457.858742,0.000400,0.000433,-0.000317,-0.113770,0.017090,-0.993652,0.999907,0.002115,0.013493,-0.000105,0.154594,0.037206,-0.987277,0.000019,0.242259,1.546228,-0.008736,179.310070,-17.773589,-175.575685,3.097495,0.155654,-10.262130,0,0.003479259,0
1786467457.878657,0.000533,0.000833,-0.000850,-0.113281,0.016846,-0.993408,0.999902,0.002167,0.013823,-0.000109,0.143080,0.032563,-0.989175,0.000018,0.248172,1.584093,-0.009068,179.445497,-16.443093,-176.148926,2.881437,0.129284,-10.334453,0,0.003471882,0
1786467457.898652,0.000267,0.000966,-0.000450,-0.114258,0.017090,-0.993164,0.999897,0.002217,0.014154,-0.000111,0.131432,0.028652,-0.990911,0.000016,0.253965,1.622029,-0.009165,179.554980,-15.098240,-176.628594,2.662770,0.108120,-10.401455,0,0.003469756,0
1786467457.918621,0.000400,0.000300,-0.000583,-0.113281,0.016846,-0.992920,0.999893,0.002268,0.014482,-0.000114,0.119839,0.025320,-0.992470,0.000016,0.259807,1.659587,-0.009338,179.643854,-13.761131,-177.034232,2.442033,0.090364,-10.463984,0,0.003467020,0
1786467457.938498,0.000400,0.000699,-0.000583,-0.113281,0.017334,-0.992920,0.999888,0.002320,0.014811,-0.000117,0.108225,0.022562,-0.993870,0.000015,0.265775,1.697355,-0.009502,179.715256,-12.422749,-177.368115,2.220400,0.076513,-10.521116,0,0.003461056,0
1786467457.958334,0.000001,0.000433,-0.000583,-0.113770,0.017090,-0.993408,0.999883,0.002370,0.015140,-0.000120,0.096540,0.020215,-0.995124,0.000012,0.271434,1.734982,-0.009666,179.773478,-11.077595,-177.650577,1.996670,0.064725,-10.573590,0,0.003454841,0
1786467457.978222,0.000533,0.000966,-0.000184,-0.113770,0.017090,-0.992432,0.999877,0.002422,0.015471,-0.000121,0.084822,0.018240,-0.996229,0.000013,0.277404,1.772913,-0.009595,179.821676,-9.729971,-177.886982,1.771292,0.055056,-10.619539,0,0.003452318,0
1786467457.997854,0.000533,0.000833,-0.000450,-0.113281,0.017090,-0.993408,0.999872,0.002474,0.015801,-0.000123,0.073153,0.016584,-0.997183,0.000015,0.283390,1.810764,-0.009673,179.861164,-8.389061,-178.084205,1.544815,0.047096,-10.662220,0,0.003439595,0
1786467458.017705,0.000933,0.000699,-0.000983,-0.113525,0.016602,-0.993408,0.999867,0.002527,0.016131,-0.000128,0.061434,0.015148,-0.997996,0.000018,0.289463,1.848561,-0.010056,179.894678,-7.043443,-178.254354,1.317831,0.039966,-10.698395,0,0.003439248,0
1786467458.038443,0.000533,0.000433,-0.000051,-0.113037,0.016846,-0.993164,0.999861,0.002579,0.016459,-0.000129,0.049691,0.013958,-0.998667,0.000019,0.295406,1.886189,-0.009900,179.922316,-5.695946,-178.394645,1.089971,0.034636,-10.729105,0,0.003476803,0
1786467458.058098,0.000533,0.000566,-0.000450,-0.113525,0.017334,-0.993652,0.999856,0.002632,0.016788,-0.000131,0.037908,0.013017,-0.999196,0.000019,0.301447,1.923879,-0.009966,179.945489,-4.344611,-178.505206,0.860219,0.030475,-10.755197,0,0.003458962,0
1786467458.077886,0.000533,0.000833,-0.000983,-0.113770,0.017090,-0.993896,0.999850,0.002684,0.017118,-0.000136,0.026099,0.012205,-0.999585,0.000019,0.307409,1.961733,-0.010334,179.965643,-2.990866,-178.600019,0.629550,0.026307,-10.775690,0,0.003451206,0
1786467458.097525,0.000134,0.000300,-0.000450,-0.113037,0.017334,-0.992920,0.999844,0.002735,0.017446,-0.000138,0.014351,0.011547,-0.999830,0.000016,0.313241,1.999266,-0.010392,179.982854,-1.644440,-178.676424,0.398875,0.023187,-10.789553,0,0.003439000,0
1786467458.117707,0.000400,0.000300,-0.000450,-0.113770,0.017334,-0.993164,0.999838,0.002787,0.017773,-0.000141,0.002502,0.010990,-0.999936,0.000016,0.319198,2.036803,-0.010447,179.998678,-0.286728,-178.740603,0.167807,0.020192,-10.799122,0,0.003452946,0
1786467458.137734,0.000134,0.000566,-0.000450,-0.113525,0.017090,-0.993652,0.999832,0.002837,0.018102,-0.000143,-0.009325,0.010492,-0.999901,0.000014,0.324953,2.074500,-0.010499,-179.987211,1.068548,-178.797467,-0.064321,0.017290,-10.803529,0,0.003456822,0
1786467458.158299,0.000933,0.000833,-0.000983,-0.113037,0.016846,-0.992920,0.999826,0.002891,0.018432,-0.000148,-0.021145,0.010048,-0.999726,0.000019,0.331113,2.112357,-0.010854,-179.973496,2.423113,-178.847696,-0.295811,0.014464,-10.801217,0,0.003482702,0
1786467458.177476,0.000134,0.000566,-0.000450,-0.113770,0.016846,-0.992920,0.999820,0.002940,0.018761,-0.000150,-0.032996,0.009670,-0.999409,0.000016,0.336801,2.150063,-0.010901,-179.961536,3.781527,-178.890023,-0.528417,0.012283,-10.794152,0,0.003443054,0
1786467458.197466,0.000400,0.000566,-0.000317,-0.113525,0.017578,-0.993408,0.999813,0.002993,0.019090,-0.000152,-0.044820,0.009421,-0.998951,0.000016,0.342831,2.187740,-0.010861,-179.949594,5.137425,-178.917028,-0.760405,0.010924,-10.782055,0,0.003447782,0
1786467458.217400,0.000400,0.000566,-0.000184,-0.114014,0.017090,-0.993408,0.999807,0.003044,0.019419,-0.000153,-0.056691,0.009151,-0.998350,0.000016,0.348729,2.225436,-0.010746,-179.938348,6.499527,-178.946213,-0.992339,0.008413,-10.764005,0,0.003448996,0
1786467458.237396,0.000400,0.001099,-0.000184,-0.113525,0.016846,-0.993652,0.999800,0.003096,0.019751,-0.000154,-0.068501,0.008890,-0.997611,0.000016,0.354588,2.263444,-0.010627,-179.927725,7.855507,-178.973904,-1.223754,0.006275,-10.740620,0,0.003452534,0
1786467458.257494,0.000800,0.000433,-0.000583,-0.114258,0.016846,-0.993652,0.999793,0.003148,0.020079,-0.000157,-0.080392,0.008667,-0.996726,0.000019,0.360640,2.301075,-0.010736,-179.916887,9.221882,-178.996933,-1.454958,0.004415,-10.711598,0,0.003459542,0
1786467458.277426,0.001066,0.000300,-0.000184,-0.113525,0.017090,-0.993408,0.999787,0.003203,0.020406,-0.000158,-0.092197,0.008493,-0.995705,0.000024,0.366940,2.338614,-0.010610,-179.905958,10.579578,-179.013849,-1.685600,0.002832,-10.676614,0,0.003457761,0
1786467458.297459,0.000134,0.000433,-0.000051,-0.113525,0.017090,-0.993408,0.999780,0.003254,0.020735,-0.000158,-0.103987,0.008339,-0.994544,0.000020,0.372712,2.376229,-0.010403,-179.896110,11.937180,-179.028307,-1.914567,0.001234,-10.636649,0,0.003460737,0
1786467458.317847,0.000134,0.000699,-0.000450,-0.112793,0.016357,-0.992432,0.999773,0.003303,0.021064,-0.000161,-0.115713,0.008129,-0.993249,0.000017,0.378328,2.414019,-0.010427,-179.887219,13.289068,-179.048991,-2.141747,-0.001090,-10.590303,0,0.003478122,0
1786467458.337881,0.000933,0.000433,-0.000450,-0.114014,0.016846,-0.992676,0.999766,0.003356,0.021393,-0.000163,-0.127541,0.007997,-0.991801,0.000021,0.384473,2.451646,-0.010445,-179.876664,14.654511,-179.060141,-2.368897,-0.002146,-10.539992,0,0.003476119,0
1786467458.357875,0.000800,0.000566,-0.000583,-0.113281,0.016846,-0.992920,0.999758,0.003410,0.021721,-0.000166,-0.139260,0.007878,-0.990225,0.000024,0.390567,2.489345,-0.010533,-179.866390,16.009468,-179.069575,-2.595005,-0.003765,-10.483796,0,0.003472924,0
1786467458.378269,0.000400,0.000433,-0.000184,-0.113770,0.017090,-0.993408,0.999751,0.003461,0.022050,-0.000167,-0.151014,0.007791,-0.988501,0.000022,0.396483,2.526959,-0.010388,-179.856085,17.370843,-179.074892,-2.819247,-0.004986,-10.422937,0,0.003487577,0
1786467458.398751,0.000134,0.000433,-0.000051,-0.114014,0.017090,-0.993164,0.999743,0.003511,0.022378,-0.000167,-0.162784,0.007707,-0.986632,0.000019,0.402242,2.564574,-0.010163,-179.845935,18.736452,-179.079446,-3.042757,-0.006456,-10.355750,0,0.003502378,0
1786467458.417669,0.000267,0.000167,-0.000317,-0.113525,0.016846,-0.993408,0.999736,0.003562,0.022705,-0.000169,-0.174401,0.007604,-0.984645,0.000017,0.408032,2.602043,-0.010089,-179.836121,20.086968,-179.086104,-3.264620,-0.008201,-10.283514,0,0.003446755,0
1786467458.437983,0.000533,0.000433,-0.000717,-0.113770,0.017090,-0.993652,0.999728,0.003614,0.023033,-0.000173,-0.186023,0.007536,-0.982517,0.000019,0.414012,2.639658,-0.010238,-179.825125,21.440839,-179.088024,-3.482894,-0.009411,-10.206925,0,0.003464385,0
1786467458.457826,0.000267,0.001232,-0.000983,-0.113525,0.017334,-0.993164,0.999720,0.003665,0.023365,-0.000177,-0.197570,0.007497,-0.980260,0.000019,0.419898,2.677721,-0.010530,-179.813627,22.789029,-179.086065,-3.699252,-0.010654,-10.124313,0,0.003457642,0
1786467458.478554,0.000267,0.000300,-0.000583,-0.114258,0.017334,-0.993408,0.999712,0.003717,0.023692,-0.000180,-0.209195,0.007449,-0.977846,0.000018,0.425770,2.715252,-0.010593,-179.802113,24.149604,-179.084777,-3.913997,-0.012181,-10.037589,0,0.003490323,0
1786467458.498499,0.000533,0.000566,-0.000184,-0.113525,0.017578,-0.992920,0.999704,0.003770,0.024021,-0.000181,-0.220693,0.007420,-0.975315,0.000019,0.431886,2.752922,-0.010419,-179.789787,25.498700,-179.080647,-4.126897,-0.013448,-9.944343,0,0.003481466,0
1786467458.518539,0.000134,0.000300,-0.000717,-0.114014,0.016846,-0.992920,0.999696,0.003820,0.024348,-0.000185,-0.232192,0.007312,-0.972642,0.000017,0.437577,2.790468,-0.010556,-179.779806,26.851515,-179.086027,-4.337073,-0.015725,-9.847343,0,0.003478940,0
1786467458.538688,0.000267,0.000566,-0.000317,-0.113525,0.017090,-0.992676,0.999688,0.003871,0.024677,-0.000187,-0.243595,0.007239,-0.969850,0.000016,0.443428,2.828154,-0.010455,-179.768658,28.196771,-179.086560,-4.544405,-0.016622,-9.744948,0,0.003481625,0
1786467458.558506,0.000400,0.000833,-0.000717,-0.114014,0.017090,-0.993164,0.999680,0.003922,0.025007,-0.000190,-0.254971,0.007173,-0.966922,0.000017,0.449328,2.865996,-0.010580,-179.756897,29.542802,-179.085875,-4.749106,-0.017954,-9.639018,0,0.003469542,0
1786467458.578521,0.000800,0.000300,-0.000317,-0.113281,0.016846,-0.993652,0.999671,0.003975,0.025335,-0.000192,-0.266217,0.007079,-0.963887,0.000021,0.455438,2.903535,-0.010476,-179.745737,30.877582,-179.088247,-4.950282,-0.019533,-9.528182,0,0.003468833,0
1786467458.598616,0.000666,0.000433,-0.000317,-0.113281,0.017090,-0.993164,0.999663,0.004029,0.025663,-0.000194,-0.277412,0.007022,-0.960725,0.000022,0.461529,2.941142,-0.010364,-179.733273,32.210681,-179.085436,-5.147753,-0.020419,-9.412712,0,0.003471694,0
1786467458.617941,0.000134,0.000566,-0.000850,-0.113281,0.017578,-0.993408,0.999654,0.004080,0.025991,-0.000198,-0.288508,0.007023,-0.957452,0.000021,0.467409,2.978810,-0.010548,-179.718729,33.536231,-179.074689,-5.342253,-0.021169,-9.293556,0,0.003441078,0
1786467458.638255,0.000267,0.000300,-0.000184,-0.113281,0.016846,-0.992920,0.999645,0.004131,0.026319,-0.000199,-0.299571,0.006931,-0.954049,0.000019,0.473223,3.016346,-0.010355,-179.707494,34.862592,-179.075637,-5.532905,-0.023361,-9.169849,0,0.003460139,0
1786467458.658527,0.000400,0.000833,-0.000184,-0.113525,0.017090,-0.992920,0.999636,0.004182,0.026649,-0.000200,-0.310602,0.006877,-0.950515,0.000019,0.479160,3.054181,-0.010154,-179.694208,36.189970,-179.071035,-5.720886,-0.024090,-9.042262,0,0.003472713,0
1786467458.679517,-0.000133,0.000034,-0.000184,-0.113525,0.016846,-0.993896,0.999627,0.004231,0.026975,-0.000201,-0.321610,0.006800,-0.946848,0.000014,0.484738,3.091565,-0.009956,-179.682097,37.519467,-179.069102,-5.905975,-0.025410,-8.911083,0,0.003512918,0
1786467458.697778,0.000533,0.000300,-0.000450,-0.113770,0.017090,-0.994141,0.999618,0.004283,0.027303,-0.000203,-0.332465,0.006757,-0.943091,0.000016,0.490735,3.129096,-0.009903,-179.667272,38.835719,-179.061683,-6.088320,-0.026206,-8.774820,0,0.003426697,0
1786467458.717544,0.000533,0.000167,-0.000717,-0.112793,0.017578,-0.992920,0.999609,0.004337,0.027629,-0.000207,-0.343169,0.006770,-0.939249,0.000019,0.496865,3.166530,-0.009993,-179.649114,40.138858,-179.045851,-6.264515,-0.026965,-8.634283,0,0.003425925,0
1786467458.737482,0.000134,0.000566,-0.000850,-0.113525,0.018066,-0.993652,0.999599,0.004389,0.027957,-0.000211,-0.353866,0.006820,-0.935271,0.000018,0.502843,3.204180,-0.010148,-179.628410,41.446500,-179.023781,-6.437380,-0.027989,-8.493175,0,0.003432667,0
1786467458.757488,0.000267,0.000433,-0.000450,-0.113525,0.016846,-0.992920,0.999590,0.004439,0.028286,-0.000214,-0.364504,0.006717,-0.931178,0.000018,0.508646,3.241792,-0.010086,-179.615319,42.752754,-179.022885,-6.606900,-0.030942,-8.346143,0,0.003440643,0
1786467458.777442,0.000666,0.000433,-0.000583,-0.114014,0.017090,-0.993652,0.999580,0.004492,0.028614,-0.000217,-0.375107,0.006654,-0.926958,0.000021,0.514712,3.279399,-0.010094,-179.598843,44.060395,-179.015059,-6.773332,-0.031446,-8.196931,0,0.003444452,0
1786467458.797468,0.000666,0.001099,-0.000983,-0.113525,0.017822,-0.993408,0.999571,0.004547,0.028945,-0.000222,-0.385587,0.006679,-0.922647,0.000025,0.520939,3.317362,-0.010314,-179.576270,45.358812,-178.993417,-6.935402,-0.031763,-8.042921,0,0.003450369,0
1786467458.817419,0.000933,0.000833,-0.000583,-0.112793,0.016846,-0.992920,0.999561,0.004601,0.029275,-0.000225,-0.395926,0.006581,-0.918259,0.000029,0.527147,3.355199,-0.010313,-179.560680,46.645906,-178.989339,-7.092700,-0.034342,-7.885987,0,0.003451660,0
1786467458.837437,0.000267,0.000699,-0.000184,-0.113037,0.016846,-0.992676,0.999551,0.004652,0.029604,-0.000226,-0.406213,0.006502,-0.913755,0.000026,0.532982,3.392957,-0.010080,-179.544304,47.932644,-178.982095,-7.246038,-0.034854,-7.727193,0,0.003455465,0
1786467458.857542,0.000267,0.001099,-0.000583,-0.113525,0.017090,-0.993408,0.999541,0.004703,0.029935,-0.000229,-0.416454,0.006463,-0.909134,0.000024,0.538839,3.430941,-0.010068,-179.523890,49.220151,-178.967313,-7.395908,-0.035306,-7.566098,0,0.003462064,0
1786467458.877427,0.000800,0.001099,-0.000450,-0.114258,0.017578,-0.992920,0.999531,0.004757,0.030267,-0.000231,-0.426675,0.006476,-0.904382,0.000027,0.545086,3.468911,-0.009971,-179.497701,50.511591,-178.942523,-7.542492,-0.035834,-7.400304,0,0.003457681,0
1786467458.897430,0.000533,0.000433,-0.000450,-0.113525,0.017334,-0.993408,0.999520,0.004810,0.030594,-0.000233,-0.436742,0.006451,-0.899564,0.000027,0.551155,3.506503,-0.009875,-179.473508,51.790442,-178.922649,-7.684370,-0.037491,-7.231629,0,0.003459418,0
1786467458.917433,0.000267,0.000833,-0.000450,-0.113525,0.016602,-0.992676,0.999510,0.004860,0.030925,-0.000236,-0.446723,0.006350,-0.894650,0.000025,0.556918,3.544347,-0.009783,-179.454687,53.065282,-178.914368,-7.821668,-0.039257,-7.060420,0,0.003460655,0
1786467458.937431,0.000400,0.001099,-0.000583,-0.114014,0.016602,-0.992920,0.999499,0.004911,0.031256,-0.000239,-0.456650,0.006271,-0.889624,0.000025,0.562737,3.582346,-0.009763,-179.432679,54.340293,-178.901118,-7.955219,-0.039641,-6.887700,0,0.003461413,0
1786467458.957524,0.000533,0.000300,-0.000583,-0.114502,0.016357,-0.992676,0.999489,0.004962,0.031583,-0.000242,-0.466539,0.006180,-0.884479,0.000027,0.568568,3.619897,-0.009748,-179.410149,55.617707,-178.888215,-8.085030,-0.040423,-6.711378,0,0.003466066,0
1786467458.977452,0.000400,0.000699,-0.000450,-0.113770,0.016602,-0.993164,0.999478,0.005013,0.031913,-0.000244,-0.476256,0.006134,-0.879285,0.000026,0.574401,3.657664,-0.009646,-179.382504,56.880160,-178.866153,-8.209768,-0.040546,-6.532807,0,0.003462510,0
1786467458.997513,0.000933,0.000433,-0.000317,-0.114014,0.016602,-0.992920,0.999467,0.005066,0.032241,-0.000246,-0.485904,0.006092,-0.873991,0.000029,0.580538,3.695279,-0.009465,-179.351873,58.141177,-178.840977,-8.330132,-0.041318,-6.352785,0,0.003465511,0
1786467459.017807,0.000267,0.000966,-0.000583,-0.113525,0.016846,-0.993164,0.999456,0.005117,0.032572,-0.000249,-0.495417,0.006086,-0.868634,0.000028,0.586351,3.733189,-0.009426,-179.316038,59.392112,-178.807114,-8.445559,-0.041853,-6.170989,0,0.003477701,0
1786467459.037634,0.000001,0.000300,0.000082,-0.114014,0.017578,-0.992676,0.999445,0.005167,0.032899,-0.000248,-0.504871,0.006152,-0.863173,0.000022,0.592172,3.770693,-0.008997,-179.269528,60.642997,-178.756059,-8.557176,-0.042032,-5.987229,0,0.003466967,0
1786467459.057486,0.000933,0.000433,-0.000450,-0.113281,0.016846,-0.993164,0.999434,0.005222,0.033227,-0.000251,-0.514150,0.006113,-0.857679,0.000026,0.598380,3.808296,-0.008876,-179.230375,61.878545,-178.721920,-8.663458,-0.044633,-5.802196,0,0.003459955,0
1786467459.077491,0.000267,0.000167,-0.000450,-0.114502,0.016602,-0.992920,0.999423,0.005272,0.033553,-0.000253,-0.523433,0.006057,-0.852045,0.000025,0.604121,3.845759,-0.008760,-179.191006,63.122750,-178.688516,-8.766420,-0.045609,-5.616398,0,0.003461186,0
1786467459.097449,0.000134,0.000167,-0.000450,-0.113770,0.017578,-0.992920,0.999412,0.005323,0.033880,-0.000256,-0.532552,0.006117,-0.846375,0.000023,0.610007,3.883187,-0.008624,-179.132312,64.352885,-178.625893,-8.864050,-0.045129,-5.427417,0,0.003460096,0
1786467459.117441,0.000400,0.001232,-0.000051,-0.114014,0.016602,-0.993408,0.999400,0.005374,0.034212,-0.000256,-0.541572,0.006046,-0.840632,0.000022,0.615857,3.921254,-0.008263,-179.087405,65.578193,-178.587998,-8.957397,-0.047741,-5.239173,0,0.003460764,0
1786467459.137426,0.000666,0.000833,-0.000717,-0.113281,0.017090,-0.992676,0.999388,0.005427,0.034542,-0.000260,-0.550440,0.006047,-0.834853,0.000026,0.621955,3.959078,-0.008275,-179.025919,66.790901,-178.527830,-9.045476,-0.047692,-5.048263,0,0.003460940,0
1786467459.157436,0.000267,0.000167,-0.000583,-0.113037,0.016357,-0.994141,0.999377,0.005477,0.034868,-0.000263,-0.559177,0.005963,-0.829027,0.000025,0.627691,3.996540,-0.008220,-178.973852,67.994148,-178.483723,-9.129127,-0.049491,-4.859614,0,0.003462127,0
1786467459.177518,0.000800,0.000833,-0.000317,-0.113281,0.016602,-0.993408,0.999365,0.005530,0.035198,-0.000264,-0.567833,0.005923,-0.823122,0.000027,0.633784,4.034375,-0.008001,-178.907574,69.194598,-178.421879,-9.208517,-0.049345,-4.668789,0,0.003466135,0
1786467459.197450,0.000134,0.000300,-0.000717,-0.113770,0.017334,-0.992676,0.999353,0.005581,0.035525,-0.000268,-0.576428,0.005976,-0.817126,0.000027,0.639613,4.071887,-0.008002,-178.815988,70.395079,-178.326764,-9.284059,-0.049239,-4.476561,0,0.003462717,0
1786467459.217440,0.000267,0.000566,-0.000583,-0.113525,0.017090,-0.992920,0.999341,0.005632,0.035854,-0.000271,-0.584892,0.005981,-0.811089,0.000026,0.645483,4.109556,-0.007924,-178.723029,71.586034,-178.234212,-9.354788,-0.051051,-4.283895,0,0.003462626,0
1786467459.237421,0.000134,0.000034,-0.000583,-0.113770,0.016602,-0.993164,0.999329,0.005681,0.036180,-0.000274,-0.593268,0.005929,-0.804983,0.000025,0.651173,4.146935,-0.007853,-178.631047,72.773504,-178.147250,-9.421485,-0.052573,-4.091186,0,0.003462209,0
1786467459.257605,0.000001,0.000833,-0.000051,-0.114258,0.016846,-0.992920,0.999317,0.005731,0.036510,-0.000274,-0.601575,0.005914,-0.798795,0.000021,0.656843,4.184763,-0.007465,-178.517521,73.960037,-178.035335,-9.484147,-0.052571,-3.897477,0,0.003470511,0
1786467459.277483,0.000400,0.000966,-0.000717,-0.113525,0.017090,-0.992676,0.999304,0.005782,0.036840,-0.000278,-0.609713,0.005929,-0.792600,0.000023,0.662784,4.222661,-0.007449,-178.377273,75.131370,-177.894725,-9.541561,-0.053192,-3.702528,0,0.003463733,0
1786467459.297450,0.000400,0.000833,-0.000317,-0.113525,0.016357,-0.992432,0.999292,0.005833,0.037170,-0.000280,-0.617743,0.005855,-0.786358,0.000023,0.668599,4.260501,-0.007211,-178.241332,76.296424,-177.765425,-9.595012,-0.055008,-3.508861,0,0.003462380,0
1786467459.317470,0.000666,0.000300,-0.000983,-0.114014,0.017334,-0.993408,0.999279,0.005886,0.037497,-0.000285,-0.625696,0.005906,-0.780045,0.000029,0.674715,4.298013,-0.007343,-178.037575,77.459128,-177.558451,-9.644750,-0.054207,-3.316347,0,0.003463696,0
1786467459.337456,0.000533,0.000966,-0.000717,-0.114258,0.016357,-0.993652,0.999267,0.005937,0.037828,-0.000289,-0.633548,0.005831,-0.773681,0.000031,0.680571,4.335934,-0.007328,-177.840839,78.616556,-177.368506,-9.690162,-0.056746,-3.122691,0,0.003463193,0
1786467459.357482,0.000400,0.000966,-0.000983,-0.114014,0.017578,-0.993896,0.999254,0.005990,0.038158,-0.000294,-0.641271,0.005911,-0.767291,0.000033,0.686583,4.373819,-0.007443,-177.538680,79.763848,-177.060510,-9.730994,-0.055576,-2.928947,0,0.003464509,0
1786467459.377458,0.000533,0.000167,-0.000450,-0.113281,0.017090,-0.992432,0.999241,0.006042,0.038485,-0.000296,-0.648851,0.005910,-0.760893,0.000033,0.692622,4.411254,-0.007260,-177.202642,80.899087,-176.724952,-9.767136,-0.057881,-2.734148,0,0.003463384,0
1786467459.397733,0.000800,0.001099,-0.000450,-0.113770,0.016846,-0.993408,0.999228,0.006096,0.038816,-0.000298,-0.656348,0.005877,-0.754435,0.000035,0.698755,4.449232,-0.007071,-176.788196,82.031348,-176.313691,-9.800239,-0.058996,-2.543459,0,0.003475322,0
1786467459.417488,0.000134,0.000566,-0.000717,-0.113525,0.017334,-0.993164,0.999215,0.006146,0.039144,-0.000302,-0.663715,0.005911,-0.747963,0.000034,0.704596,4.486890,-0.007028,-176.202566,83.152477,-175.725499,-9.828784,-0.059003,-2.351109,0,0.003462067,0
1786467459.437464,0.000533,0.000699,-0.000184,-0.113525,0.016602,-0.993652,0.999201,0.006198,0.039474,-0.000303,-0.670966,0.005847,-0.741465,0.000032,0.710550,4.524642,-0.006684,-175.468634,84.265300,-174.996858,-9.853534,-0.060910,-2.160842,0,0.003461554,0
1786467459.457630,0.000267,0.000833,-0.000717,-0.114258,0.017090,-0.993408,0.999188,0.006249,0.039803,-0.000307,-0.678162,0.005860,-0.734890,0.000032,0.716401,4.562462,-0.006636,-174.306571,85.377435,-173.834023,-9.875143,-0.060500,-1.970746,0,0.003469277,0
1786467459.477416,0.000267,0.000566,-0.000450,-0.113281,0.017090,-0.993896,0.999174,0.006300,0.040132,-0.000309,-0.685175,0.005865,-0.728355,0.000031,0.722292,4.600123,-0.006430,-172.460792,86.468113,-171.987837,-9.891362,-0.061434,-1.780708,0,0.003458875,0
1786467459.497403,0.000800,0.000566,-0.000450,-0.113770,0.016846,-0.993408,0.999161,0.006354,0.040460,-0.000311,-0.692114,0.005839,-0.721765,0.000033,0.728429,4.637793,-0.006226,-169.033169,87.550551,-168.562643,-9.905129,-0.062544,-1.592629,0,0.003459612,0
1786467459.517386,0.000267,0.001365,-0.000717,-0.113770,0.016846,-0.993652,0.999147,0.006404,0.040793,-0.000315,-0.698936,0.005823,-0.715160,0.000034,0.734250,4.675921,-0.006165,-160.385229,88.602301,-159.916060,-9.914793,-0.063057,-1.405522,0,0.003460010,0
1786467459.537394,0.000533,0.000433,-0.000583,-0.114014,0.016602,-0.993408,0.999133,0.006456,0.041120,-0.000318,-0.705674,0.005783,-0.708513,0.000035,0.740177,4.713523,-0.006035,-116.248370,89.475435,-115.782564,-9.921092,-0.063842,-1.218893,0,0.003461336,0
1786467459.557397,0.000800,0.000966,-0.000184,-0.113281,0.017090,-0.993408,0.999119,0.006510,0.041451,-0.000319,-0.712256,0.005806,-0.701896,0.000035,0.746390,4.751409,-0.005658,-29.649989,89.036352,-29.182322,-9.922869,-0.063499,-1.033317,0,0.003462153,0
1786467459.577404,0.000267,0.000300,-0.000717,-0.114014,0.017334,-0.992920,0.999105,0.006561,0.041778,-0.000323,-0.718782,0.005854,-0.695211,0.000035,0.752297,4.788913,-0.005586,-14.263598,88.031324,-13.792026,-9.922626,-0.064424,-0.849596,0,0.003462916,0
1786467459.597404,0.000400,0.000966,-0.000184,-0.114746,0.017090,-0.992920,0.999091,0.006613,0.042108,-0.000324,-0.725237,0.005856,-0.688474,0.000033,0.758242,4.826803,-0.005205,-9.336345,86.982816,-8.864339,-9.918962,-0.065976,-0.666494,0,0.003463226,0
1786467459.617406,0.000267,-0.000100,-0.000450,-0.113525,0.017090,-0.993408,0.999077,0.006664,0.042433,-0.000326,-0.731518,0.005859,-0.681797,0.000032,0.764132,4.864081,-0.004978,-6.993077,85.942100,-6.520595,-9.909925,-0.066764,-0.483875,0,0.003463509,0
1786467459.637465,0.000533,0.001365,-0.000583,-0.113770,0.017090,-0.993896,0.999063,0.006717,0.042765,-0.000329,-0.737695,0.005859,-0.675108,0.000033,0.770163,4.902198,-0.004813,-5.614996,84.904538,-5.142462,-9.899194,-0.067536,-0.305128,0,0.003466193,0
1786467459.657412,0.000267,0.000566,-0.000850,-0.112793,0.017578,-0.992920,0.999048,0.006769,0.043094,-0.000334,-0.743723,0.005919,-0.668462,0.000035,0.776147,4.939842,-0.004793,-4.761692,83.879805,-4.284270,-9.884033,-0.067832,-0.125931,0,0.003463381,0
1786467459.677444,0.000400,0.000433,-0.000583,-0.114014,0.017578,-0.992920,0.999034,0.006821,0.043421,-0.000337,-0.749714,0.005956,-0.661735,0.000035,0.782186,4.977412,-0.004620,-4.136419,82.850056,-3.655715,-9.868109,-0.069348,0.049275,0,0.003464961,0
1786467459.697454,0.000666,0.000300,-0.000717,-0.114014,0.016846,-0.992676,0.999019,0.006874,0.043748,-0.000340,-0.755602,0.005900,-0.655004,0.000038,0.788238,5.014927,-0.004533,-3.616402,81.827580,-3.140190,-9.847735,-0.071351,0.225102,0,0.003465147,0
1786467459.717403,0.000666,0.000566,0.000082,-0.113525,0.017334,-0.993164,0.999004,0.006927,0.044076,-0.000340,-0.761354,0.005914,-0.648310,0.000035,0.794434,5.052572,-0.003971,-3.251364,80.817684,-2.773525,-9.823918,-0.070592,0.398466,0,0.003462746,0
1786467459.737381,0.000933,0.000167,-0.000184,-0.113281,0.016846,-0.993164,0.998989,0.006982,0.044403,-0.000341,-0.766992,0.005869,-0.641630,0.000036,0.800688,5.090002,-0.003569,-2.934156,79.817420,-2.459671,-9.797577,-0.071947,0.569731,0,0.003462113,0
1786467459.757696,0.000400,0.001365,-0.000450,-0.113525,0.016846,-0.993652,0.998974,0.007033,0.044735,-0.000344,-0.772539,0.005842,-0.634941,0.000036,0.806620,5.128121,-0.003307,-2.682637,78.822724,-2.209900,-9.769059,-0.072003,0.738073,0,0.003476034,0
1786467459.777487,0.000400,0.000566,-0.000717,-0.114014,0.017090,-0.993164,0.998959,0.007085,0.045063,-0.000347,-0.778009,0.005854,-0.628225,0.000037,0.812569,5.165780,-0.003198,-2.489572,77.830982,-2.015552,-9.737958,-0.072035,0.906267,0,0.003464198,0
1786467459.797430,-0.000133,0.000300,-0.000317,-0.113525,0.017822,-0.992676,0.998944,0.007135,0.045390,-0.000349,-0.783358,0.005949,-0.621543,0.000033,0.818380,5.203259,-0.002845,-2.358394,76.850598,-1.875880,-9.703107,-0.072069,1.073226,0,0.003461730,0
1786467459.817423,0.000533,0.000833,-0.000850,-0.113770,0.016846,-0.992920,0.998928,0.007187,0.045720,-0.000353,-0.788613,0.005902,-0.614861,0.000037,0.824363,5.241076,-0.002806,-2.197039,75.877228,-1.718145,-9.666588,-0.075127,1.236719,0,0.003462017,0
1786467459.837413,0.000666,0.000300,-0.000450,-0.114014,0.017334,-0.993652,0.998913,0.007241,0.046047,-0.000356,-0.793780,0.005923,-0.608176,0.000038,0.830524,5.278571,-0.002531,-2.079866,74.909417,-1.598859,-9.627521,-0.074483,1.398177,0,0.003462129,0
1786467459.857407,0.000533,0.000167,-0.000583,-0.113770,0.016846,-0.992676,0.998898,0.007293,0.046373,-0.000359,-0.798844,0.005886,-0.601510,0.000039,0.836523,5.316004,-0.002336,-1.959173,73.950742,-1.480681,-9.585483,-0.075928,1.559604,0,0.003462328,0
1786467459.877718,0.000400,0.000433,-0.000184,-0.113525,0.016846,-0.993408,0.998882,0.007345,0.046700,-0.000360,-0.803801,0.005862,-0.594870,0.000037,0.842475,5.353584,-0.001905,-1.855783,73.001655,-1.378537,-9.541198,-0.075887,1.717033,0,0.003476074,0
1786467459.897500,0.000533,0.000433,-0.000317,-0.113525,0.017090,-0.993408,0.998866,0.007397,0.047028,-0.000362,-0.808655,0.005875,-0.588254,0.000036,0.848540,5.391157,-0.001543,-1.775715,72.061675,-1.296785,-9.494982,-0.075812,1.872904,0,0.003463797,0
1786467459.917433,0.000666,0.000300,-0.000450,-0.113770,0.017090,-0.993652,0.998850,0.007450,0.047355,-0.000364,-0.813423,0.005884,-0.581643,0.000038,0.854669,5.428657,-0.001255,-1.703671,71.127919,-1.223426,-9.446909,-0.076579,2.026254,0,0.003461027,0
1786467459.937428,0.000267,0.000566,-0.000583,-0.113281,0.016846,-0.994141,0.998834,0.007501,0.047683,-0.000367,-0.818072,0.005867,-0.575086,0.000038,0.860534,5.466314,-0.001041,-1.631881,70.207132,-1.152376,-9.395961,-0.077583,2.177459,0,0.003461530,0
1786467459.957784,0.000400,0.000966,-0.000184,-0.113525,0.017090,-0.992920,0.998818,0.007553,0.048013,-0.000368,-0.822651,0.005886,-0.568516,0.000036,0.866535,5.504190,-0.000586,-1.575758,69.289683,-1.093883,-9.344044,-0.077517,2.327422,0,0.003477392,0
1786467459.977853,0.000533,0.000300,-0.000717,-0.113281,0.017578,-0.993164,0.998802,0.007607,0.048340,-0.000372,-0.827131,0.005957,-0.561978,0.000039,0.872675,5.541675,-0.000430,-1.539401,68.381599,-1.051183,-9.289382,-0.077916,2.474710,0,0.003477063,0
1786467459.997557,0.000666,0.000433,-0.000583,-0.113770,0.016846,-0.992920,0.998786,0.007660,0.048668,-0.000375,-0.831532,0.005922,-0.555446,0.000040,0.878759,5.579256,-0.000206,-1.480279,67.479274,-0.994315,-9.233746,-0.080306,2.619930,0,0.003461250,0
1786467460.017481,0.000400,0.000300,-0.000450,-0.113770,0.017578,-0.993652,0.998769,0.007712,0.048994,-0.000377,-0.835839,0.005985,-0.548942,0.000040,0.884826,5.616739,0.000109,-1.448994,66.585488,-0.957076,-9.175691,-0.079538,2.762443,0,0.003458690,0
1786467460.037490,0.000666,0.000833,-0.000983,-0.113770,0.017090,-0.993408,0.998753,0.007765,0.049324,-0.000382,-0.840056,0.005974,-0.542466,0.000045,0.890933,5.654545,0.000118,-1.404427,65.700109,-0.912992,-9.116018,-0.081612,2.903498,0,0.003460387,0
1786467460.057435,0.000134,0.000566,-0.000317,-0.113525,0.016846,-0.993896,0.998736,0.007816,0.049652,-0.000384,-0.844175,0.005942,-0.536034,0.000042,0.896738,5.692197,0.000509,-1.357466,64.825094,-0.867603,-9.054444,-0.082143,3.041729,0,0.003458989,0
1786467460.077479,0.000800,0.000433,-0.000583,-0.113525,0.016357,-0.993652,0.998719,0.007868,0.049980,-0.000387,-0.848211,0.005865,-0.529626,0.000044,0.902824,5.729788,0.000741,-1.304672,63.957455,-0.820590,-8.991742,-0.082538,3.178108,0,0.003462129,0
1786467460.097470,0.000933,0.001099,-0.000717,-0.113525,0.017090,-0.993408,0.998702,0.007923,0.050310,-0.000391,-0.852160,0.005899,-0.523248,0.000048,0.909108,5.767742,0.000918,-1.279612,63.097990,-0.792145,-8.927592,-0.081021,3.312251,0,0.003462200,0
1786467460.117443,0.000800,0.000566,-0.000184,-0.113037,0.016602,-0.992432,0.998685,0.007976,0.050638,-0.000392,-0.856014,0.005870,-0.516920,0.000047,0.915276,5.805396,0.001394,-1.242761,62.249113,-0.756701,-8.861465,-0.082483,3.445056,0,0.003461545,0
1786467460.137496,0.000134,0.000566,-0.000317,-0.113770,0.017578,-0.992920,0.998668,0.008028,0.050966,-0.000394,-0.859810,0.005970,-0.510579,0.000044,0.921205,5.843028,0.001813,-1.234215,61.402157,-0.738711,-8.795479,-0.081534,3.573720,0,0.003464410,0
1786467460.157441,0.000267,0.000300,-0.000450,-0.113770,0.017334,-0.993652,0.998651,0.008079,0.051293,-0.000396,-0.863522,0.006010,-0.504275,0.000043,0.927162,5.880514,0.002152,-1.215214,60.563913,-0.715292,-8.726986,-0.083860,3.700850,0,0.003461986,0
1786467460.177446,0.000400,0.000699,-0.000450,-0.113770,0.017090,-0.992920,0.998634,0.008131,0.051622,-0.000399,-0.867155,0.006013,-0.498002,0.000043,0.933154,5.918236,0.002494,-1.190413,59.733449,-0.689234,-8.657409,-0.085195,3.827025,0,0.003462730,0
1786467460.197463,0.000134,0.000300,-0.000450,-0.113770,0.017578,-0.993408,0.998616,0.008183,0.051948,-0.000401,-0.870708,0.006076,-0.491763,0.000041,0.939078,5.955715,0.002845,-1.178578,58.910648,-0.671031,-8.586597,-0.085207,3.949945,0,0.003463786,0
1786467460.217874,0.000933,0.001232,-0.000450,-0.114014,0.017090,-0.993652,0.998598,0.008237,0.052280,-0.000403,-0.874192,0.006060,-0.485542,0.000044,0.945371,5.993741,0.003200,-1.153171,58.093716,-0.646191,-8.515061,-0.087084,4.070698,0,0.003481405,0
1786467460.237469,0.000533,0.000433,-0.000450,-0.113525,0.017090,-0.993652,0.998581,0.008290,0.052607,-0.000406,-0.877579,0.006055,-0.479394,0.000044,0.951449,6.031307,0.003552,-1.131322,57.289521,-0.623717,-8.441412,-0.087277,4.190121,0,0.003459880,0
1786467460.257460,0.000933,0.000566,-0.000450,-0.113281,0.016602,-0.993164,0.998563,0.008344,0.052935,-0.000408,-0.880883,0.005997,-0.473296,0.000046,0.957682,6.068961,0.003902,-1.101297,56.494821,-0.597682,-8.367592,-0.088042,4.306978,0,0.003460510,0
1786467460.277482,0.000533,0.000300,-0.000317,-0.113037,0.016357,-0.992920,0.998545,0.008395,0.053262,-0.000410,-0.884109,0.005937,-0.467244,0.000045,0.963660,6.106466,0.004325,-1.071908,55.709085,-0.572321,-8.292999,-0.087718,4.421273,0,0.003462356,0
1786467460.297457,0.000400,0.000966,-0.000583,-0.113525,0.017334,-0.993164,0.998527,0.008448,0.053592,-0.000413,-0.887272,0.006013,-0.461208,0.000046,0.969700,6.144331,0.004622,-1.068308,54.928179,-0.561224,-8.218531,-0.086109,4.532619,0,0.003461677,0
1786467460.317455,0.000400,0.000699,-0.000583,-0.114014,0.016846,-0.993164,0.998509,0.008499,0.053921,-0.000416,-0.890379,0.006012,-0.455181,0.000047,0.975645,6.182057,0.004911,-1.051544,54.151320,-0.543566,-8.142913,-0.088299,4.642598,0,0.003462227,0
1786467460.337480,0.000800,0.000433,-0.000051,-0.113281,0.017578,-0.993652,0.998491,0.008554,0.054248,-0.000417,-0.893393,0.006095,-0.449235,0.000045,0.981995,6.219603,0.005523,-1.050224,53.387348,-0.533833,-8.064989,-0.087773,4.750506,0,0.003463728,0
1786467460.357454,0.000666,0.001365,-0.000317,-0.113525,0.017334,-0.992188,0.998472,0.008608,0.054580,-0.000419,-0.896345,0.006132,-0.443315,0.000045,0.988207,6.257693,0.005989,-1.041451,52.629374,-0.520801,-7.988031,-0.089875,4.857321,0,0.003462719,0
1786467460.377467,0.000400,0.000433,-0.000450,-0.113525,0.016846,-0.993164,0.998454,0.008660,0.054907,-0.000421,-0.899229,0.006104,-0.437435,0.000045,0.994178,6.295262,0.006365,-1.022518,51.878938,-0.503112,-7.909837,-0.091402,4.960146,0,0.003463639,0
1786467460.397648,0.000267,0.000300,-0.000583,-0.114014,0.017090,-0.993164,0.998435,0.008711,0.055234,-0.000424,-0.902062,0.006118,-0.431562,0.000046,1.000093,6.332750,0.006669,-1.011400,51.131798,-0.489637,-7.831656,-0.091039,5.061785,0,0.003471440,0
1786467460.417481,0.000134,0.000433,-0.000450,-0.113037,0.016602,-0.993164,0.998417,0.008761,0.055561,-0.000426,-0.904800,0.006076,-0.425794,0.000045,1.005885,6.370323,0.007050,-0.991770,50.400301,-0.472342,-7.751072,-0.092113,5.161891,0,0.003462527,0
1786467460.437447,0.000533,0.000966,-0.000317,-0.113770,0.016357,-0.993164,0.998398,0.008813,0.055891,-0.000428,-0.907488,0.006020,-0.420035,0.000044,1.011858,6.408207,0.007510,-0.970617,49.672014,-0.454815,-7.672657,-0.091857,5.258844,0,0.003461485,0
1786467460.457485,0.000400,0.000433,-0.000450,-0.113037,0.017090,-0.993408,0.998379,0.008865,0.056219,-0.000430,-0.910096,0.006073,-0.414352,0.000044,1.017885,6.445767,0.007907,-0.967765,48.955518,-0.446189,-7.591767,-0.090471,5.354278,0,0.003463724,0
1786467460.477712,0.000400,0.000566,-0.000317,-0.114258,0.016846,-0.994141,0.998360,0.008916,0.056547,-0.000432,-0.912673,0.006082,-0.408646,0.000044,1.023851,6.483411,0.008378,-0.958111,48.238187,-0.434466,-7.513033,-0.091949,5.446542,0,0.003473503,0
1786467460.497762,0.000533,0.000300,-0.000583,-0.113281,0.016602,-0.993164,0.998341,0.008968,0.056873,-0.000435,-0.915167,0.006066,-0.403030,0.000046,1.029861,6.520907,0.008695,-0.945355,47.534081,-0.422036,-7.430795,-0.092669,5.539688,0,0.003473342,0
1786467460.517677,0.000933,0.000566,-0.000317,-0.113281,0.016846,-0.993164,0.998322,0.009023,0.057201,-0.000437,-0.917597,0.006085,-0.397465,0.000047,1.036159,6.558547,0.009177,-0.938440,46.838152,-0.412322,-7.349987,-0.092353,5.629092,0,0.003467438,0
1786467460.537501,0.000800,0.000167,-0.000317,-0.113281,0.017334,-0.993652,0.998303,0.009077,0.057527,-0.000439,-0.919967,0.006159,-0.391948,0.000047,1.042462,6.595945,0.009668,-0.940347,46.150113,-0.406503,-7.268955,-0.092513,5.716070,0,0.003459113,0
1786467460.557465,0.000400,0.001365,-0.000450,-0.113770,0.016846,-0.993164,0.998283,0.009129,0.057859,-0.000441,-0.922286,0.006160,-0.386460,0.000048,1.048439,6.634044,0.010088,-0.931304,45.467431,-0.396126,-7.188506,-0.094697,5.801816,0,0.003458784,0
1786467460.577460,0.000400,0.000966,-0.000317,-0.114014,0.016846,-0.993652,0.998263,0.009180,0.058189,-0.000443,-0.924553,0.006163,-0.381003,0.000047,1.054419,6.671914,0.010584,-0.923001,44.790365,-0.386132,-7.107223,-0.094967,5.885201,0,0.003459884,0
1786467460.597467,0.000400,0.000833,-0.000583,-0.113281,0.016846,-0.993652,0.998244,0.009232,0.058518,-0.000446,-0.926750,0.006171,-0.375629,0.000048,1.060401,6.709707,0.010931,-0.915948,44.125121,-0.377190,-7.024687,-0.095329,5.967381,0,0.003461230,0
1786467460.617450,0.000933,0.000833,-0.000317,-0.114014,0.017334,-0.994385,0.998224,0.009287,0.058847,-0.000448,-0.928905,0.006233,-0.370267,0.000049,1.066767,6.747487,0.011443,-0.916994,43.462847,-0.371563,-6.944122,-0.095146,6.046429,0,0.003461186,0
1786467460.637464,0.000666,0.000966,-0.000583,-0.113770,0.017090,-0.993652,0.998204,0.009340,0.059177,-0.000451,-0.931002,0.006254,-0.364960,0.000051,1.072931,6.785351,0.011803,-0.912469,42.809011,-0.364002,-6.862048,-0.096847,6.125607,0,0.003462501,0
1786467460.657464,0.000666,0.001232,-0.000450,-0.113281,0.017090,-0.993408,0.998184,0.009394,0.059508,-0.000454,-0.933037,0.006274,-0.359726,0.000052,1.079118,6.823363,0.012248,-0.907937,42.165555,-0.356460,-6.779908,-0.097484,6.202358,0,0.003462902,0
1786467460.677432,0.000267,0.000034,-0.000317,-0.114502,0.017090,-0.993164,0.998164,0.009445,0.059833,-0.000455,-0.935048,0.006294,-0.354466,0.000051,1.085055,6.860692,0.012757,-0.903455,41.520192,-0.348691,-6.699715,-0.098132,6.277173,0,0.003461860,0
1786467460.697461,-0.000133,0.000300,-0.000317,-0.113281,0.017090,-0.993164,0.998143,0.009495,0.060160,-0.000457,-0.936984,0.006316,-0.349316,0.000048,1.090795,6.898168,0.013276,-0.899595,40.889749,-0.341245,-6.616216,-0.098783,6.350848,0,0.003463648,0
1786467460.717437,0.000400,0.000966,-0.000450,-0.114502,0.017090,-0.993652,0.998123,0.009546,0.060490,-0.000459,-0.938889,0.006330,-0.344161,0.000049,1.096802,6.936031,0.013727,-0.895017,40.260087,-0.334000,-6.536324,-0.099343,6.421382,0,0.003462731,0
1786467460.737448,0.000400,0.000966,-0.000450,-0.114258,0.017334,-0.993408,0.998103,0.009599,0.060819,-0.000462,-0.940741,0.006375,-0.339065,0.000049,1.102854,6.973887,0.014186,-0.894881,39.638735,-0.328510,-6.454195,-0.099600,6.491751,0,0.003463547,0
1786467460.757413,0.000400,0.000300,-0.000583,-0.113281,0.016357,-0.993164,0.998082,0.009650,0.061146,-0.000465,-0.942531,0.006295,-0.334060,0.000051,1.108767,7.011383,0.014550,-0.877730,39.029741,-0.317253,-6.371563,-0.101641,6.560384,0,0.003462187,0
1786467460.777407,0.000533,0.000433,-0.000184,-0.113281,0.016846,-0.992920,0.998061,0.009702,0.061473,-0.000466,-0.944274,0.006302,-0.329101,0.000049,1.114863,7.048939,0.015159,-0.872873,38.427440,-0.310186,-6.290936,-0.099833,6.626730,0,0.003462394,0
1786467460.797414,-0.000133,0.000433,-0.000450,-0.113525,0.016846,-0.993652,0.998041,0.009751,0.061800,-0.000468,-0.945974,0.006315,-0.324182,0.000048,1.120554,7.086497,0.015617,-0.869042,37.831006,-0.303654,-6.210732,-0.100304,6.690516,0,0.003463111,0
1786467460.817394,0.000800,0.000566,-0.000450,-0.113281,0.016357,-0.993408,0.998020,0.009805,0.062128,-0.000471,-0.947625,0.006265,-0.319323,0.000050,1.126709,7.124143,0.016073,-0.856909,37.242979,-0.294811,-6.130180,-0.101090,6.753800,0,0.003462491,0
1786467460.837402,0.000267,0.000433,-0.000450,-0.113770,0.017090,-0.993164,0.997999,0.009856,0.062455,-0.000473,-0.949242,0.006327,-0.314484,0.000050,1.132663,7.161696,0.016543,-0.860139,36.658306,-0.291035,-6.050813,-0.099716,6.815419,0,0.003463253,0
1786467460.857422,0.000267,0.000566,-0.000583,-0.113281,0.016846,-0.993408,0.997978,0.009907,0.062783,-0.000476,-0.950807,0.006344,-0.309718,0.000052,1.138582,7.199331,0.016939,-0.857636,36.083510,-0.285599,-5.970346,-0.101318,6.875323,0,0.003464278,0
1786467460.877408,0.000267,0.000034,-0.000717,-0.113281,0.016602,-0.993652,0.997957,0.009958,0.063108,-0.000480,-0.952332,0.006332,-0.304997,0.000054,1.144454,7.236667,0.017250,-0.851240,35.515039,-0.279137,-5.891020,-0.102106,6.933500,0,0.003463638,0
1786467460.897412,0.000400,0.000833,-0.000317,-0.113770,0.016846,-0.992920,0.997936,0.010009,0.063437,-0.000482,-0.953822,0.006356,-0.300304,0.000053,1.150459,7.274452,0.017809,-0.849885,34.950799,-0.273996,-5.812694,-0.101755,6.991083,0,0.003463920,0
1786467460.917660,0.000400,0.001099,-0.000583,-0.113770,0.016846,-0.993408,0.997914,0.010061,0.063768,-0.000485,-0.955273,0.006377,-0.295658,0.000055,1.156446,7.312392,0.018221,-0.848313,34.393083,-0.269171,-5.733829,-0.102422,7.046294,0,0.003474563,0
1786467460.937772,0.000533,0.000833,-0.000850,-0.113770,0.016357,-0.993164,0.997892,0.010113,0.064097,-0.000489,-0.956685,0.006338,-0.291056,0.000060,1.162416,7.350193,0.018471,-0.838920,33.841461,-0.262352,-5.655252,-0.103500,7.100890,0,0.003476747,0
1786467460.957612,0.000267,0.000300,-0.000317,-0.113770,0.016846,-0.993164,0.997871,0.010164,0.064423,-0.000491,-0.958059,0.006375,-0.286501,0.000058,1.168348,7.387672,0.019036,-0.839644,33.296274,-0.258027,-5.576975,-0.102444,7.153937,0,0.003466829,0
1786467460.977505,0.000933,0.000300,-0.000317,-0.113281,0.016846,-0.993408,0.997849,0.010218,0.064750,-0.000493,-0.959387,0.006401,-0.282020,0.000059,1.174673,7.425148,0.019606,-0.839096,32.760686,-0.253642,-5.498710,-0.103194,7.205302,0,0.003461579,0
1786467460.997479,0.000533,0.000833,-0.000317,-0.113525,0.017090,-0.993408,0.997827,0.010271,0.065079,-0.000495,-0.960681,0.006456,-0.277580,0.000058,1.180805,7.462924,0.020190,-0.842342,32.230737,-0.250296,-5.422160,-0.103667,7.255223,0,0.003461095,0
1786467461.017485,0.000400,0.000833,-0.000850,-0.113525,0.017334,-0.993652,0.997805,0.010323,0.065408,-0.000499,-0.961939,0.006529,-0.273187,0.000062,1.186858,7.500700,0.020476,-0.848225,31.707141,-0.248261,-5.345630,-0.104684,7.303714,0,0.003462112,0
1786467461.037495,0.000533,0.000566,-0.000583,-0.113770,0.016846,-0.993164,0.997783,0.010376,0.065735,-0.000502,-0.963166,0.006524,-0.268827,0.000064,1.192928,7.538332,0.020906,-0.844010,31.188062,-0.243122,-5.269780,-0.106675,7.351679,0,0.003463009,0
1786467461.057495,0.000267,0.000566,-0.000317,-0.113037,0.016846,-0.993164,0.997761,0.010427,0.066063,-0.000504,-0.964351,0.006528,-0.264545,0.000062,1.198885,7.575958,0.021496,-0.840938,30.678988,-0.238059,-5.193228,-0.106760,7.398051,0,0.003463277,0
1786467461.077521,0.000666,0.000300,-0.000583,-0.113525,0.016602,-0.992920,0.997739,0.010480,0.066389,-0.000507,-0.965510,0.006503,-0.260284,0.000064,1.205002,7.613442,0.021926,-0.834474,30.173076,-0.232562,-5.118907,-0.107171,7.443130,0,0.003464577,0
1786467461.097485,0.000800,0.000966,-0.000184,-0.113281,0.016602,-0.993164,0.997716,0.010533,0.066719,-0.000508,-0.966631,0.006489,-0.256089,0.000063,1.211235,7.651301,0.022600,-0.829425,29.675509,-0.227180,-5.044085,-0.106795,7.486697,0,0.003462938,0
1786467461.117480,-0.000266,0.000433,-0.000983,-0.113525,0.017090,-0.994141,0.997694,0.010582,0.067046,-0.000513,-0.967724,0.006550,-0.251929,0.000066,1.216864,7.688853,0.022819,-0.834145,29.182563,-0.224993,-4.970403,-0.106432,7.528275,0,0.003463029,0
1786467461.137506,0.000134,0.000167,-0.000184,-0.114014,0.017090,-0.993896,0.997671,0.010632,0.067371,-0.000514,-0.968791,0.006593,-0.247790,0.000063,1.222773,7.726245,0.023499,-0.836427,28.692721,-0.221413,-4.897339,-0.107592,7.570002,0,0.003464366,0
1786467461.157501,0.000400,0.000167,-0.000450,-0.113525,0.016846,-0.993164,0.997649,0.010684,0.067697,-0.000517,-0.969825,0.006598,-0.243714,0.000064,1.228789,7.763643,0.024025,-0.834157,28.210963,-0.217127,-4.823452,-0.108749,7.611307,0,0.003464104,0
1786467461.177661,0.000400,0.000433,-0.000317,-0.113770,0.017090,-0.993408,0.997626,0.010736,0.068024,-0.000519,-0.970831,0.006636,-0.239675,0.000063,1.234848,7.801187,0.024640,-0.835985,27.733907,-0.213785,-4.751221,-0.108722,7.650336,0,0.003470940,0
1786467461.197635,0.000400,0.000034,-0.000317,-0.114014,0.016602,-0.992676,0.997603,0.010788,0.068349,-0.000520,-0.971812,0.006608,-0.235666,0.000062,1.240829,7.838513,0.025243,-0.829708,27.261016,-0.208507,-4.679258,-0.110045,7.689409,0,0.003468152,0
1786467461.217442,0.000666,0.000833,-0.000583,-0.113281,0.016846,-0.993408,0.997580,0.010841,0.068678,-0.000524,-0.972753,0.006621,-0.231747,0.000064,1.246998,7.876293,0.025714,-0.828808,26.799223,-0.205022,-4.606843,-0.109368,7.725999,0,0.003458916,0
1786467461.237420,0.000267,0.000833,-0.000317,-0.113770,0.016357,-0.993164,0.997557,0.010891,0.069007,-0.000525,-0.973673,0.006578,-0.227854,0.000063,1.252877,7.914081,0.026331,-0.820802,26.340838,-0.199521,-4.536904,-0.110284,7.762174,0,0.003459255,0
1786467461.257421,0.000400,0.000833,-0.000450,-0.114014,0.017090,-0.992676,0.997533,0.010943,0.069336,-0.000528,-0.974568,0.006642,-0.223992,0.000064,1.258925,7.951854,0.026889,-0.826352,25.886468,-0.197429,-4.466954,-0.108818,7.797782,0,0.003460502,0
1786467461.277454,0.000666,0.000300,0.000082,-0.113525,0.017090,-0.993164,0.997510,0.010997,0.069662,-0.000528,-0.975434,0.006689,-0.220189,0.000060,1.265180,7.989314,0.027754,-0.829618,25.439601,-0.194335,-4.396520,-0.110070,7.831568,0,0.003462801,0
1786467461.297466,0.000933,0.000300,-0.000450,-0.113281,0.016602,-0.992920,0.997486,0.011051,0.069988,-0.000530,-0.976273,0.006665,-0.216440,0.000062,1.271480,8.026790,0.028306,-0.824477,24.999405,-0.190074,-4.327311,-0.111538,7.864937,0,0.003463598,0
1786467461.317484,0.000400,0.000966,-0.000583,-0.114014,0.016846,-0.993652,0.997463,0.011103,0.070318,-0.000533,-0.977091,0.006685,-0.212716,0.000064,1.277487,8.064646,0.028796,-0.824764,24.562423,-0.187074,-4.259977,-0.111066,7.896271,0,0.003464508,0
1786467461.337451,0.000400,0.001365,-0.000051,-0.114014,0.016846,-0.992676,0.997439,0.011155,0.070649,-0.000534,-0.977885,0.006705,-0.209035,0.000061,1.283539,8.102722,0.029603,-0.824971,24.130999,-0.183523,-4.192120,-0.111518,7.928572,0,0.003463000,0
1786467461.357454,0.000800,0.000167,-0.000317,-0.113525,0.017090,-0.992676,0.997415,0.011209,0.070975,-0.000536,-0.978654,0.006752,-0.205405,0.000062,1.289844,8.140109,0.030252,-0.828628,23.705762,-0.181144,-4.124121,-0.111694,7.959120,0,0.003463402,0
1786467461.377450,0.000666,0.000833,-0.000051,-0.113770,0.016846,-0.993408,0.997391,0.011262,0.071303,-0.000536,-0.979400,0.006758,-0.201819,0.000060,1.296057,8.177879,0.031061,-0.827282,23.286052,-0.177441,-4.057930,-0.112938,7.987842,0,0.003463425,0
1786467461.397527,0.000800,0.000566,-0.000317,-0.113525,0.017578,-0.993896,0.997367,0.011317,0.071631,-0.000538,-0.980121,0.006856,-0.198281,0.000060,1.302437,8.215483,0.031733,-0.837285,22.872294,-0.176428,-3.991735,-0.112404,8.016026,0,0.003466868,0
1786467461.417467,0.000400,0.000833,-0.000450,-0.114014,0.017334,-0.993408,0.997343,0.011369,0.071959,-0.000540,-0.980824,0.006902,-0.194771,0.000061,1.308533,8.253247,0.032329,-0.840986,22.462039,-0.174174,-3.927098,-0.114709,8.044238,0,0.003463601,0
1786467461.437437,0.000400,0.000966,-0.000317,-0.114014,0.017090,-0.993164,0.997318,0.011421,0.072289,-0.000542,-0.981506,0.006909,-0.191304,0.000061,1.314606,8.291090,0.033003,-0.839953,22.057215,-0.170871,-3.862306,-0.115924,8.071532,0,0.003462454,0
1786467461.457587,0.000400,0.000300,-0.000450,-0.114502,0.017090,-0.993652,0.997294,0.011473,0.072615,-0.000545,-0.982172,0.006917,-0.187855,0.000063,1.320658,8.328555,0.033593,-0.839150,21.654677,-0.167788,-3.798527,-0.116154,8.097349,0,0.003469270,0
1786467461.477438,0.000400,0.000566,-0.000583,-0.113281,0.017090,-0.993408,0.997269,0.011525,0.072942,-0.000548,-0.982809,0.006930,-0.184497,0.000065,1.326727,8.366171,0.034118,-0.838951,21.262979,-0.165046,-3.733386,-0.116412,8.123231,0,0.003461617,0
1786467461.497444,0.000800,0.000833,-0.000450,-0.113281,0.017822,-0.993408,0.997245,0.011580,0.073271,-0.000550,-0.983425,0.007031,-0.181180,0.000067,1.333143,8.403920,0.034742,-0.849482,20.876369,-0.164257,-3.671020,-0.115923,8.147746,0,0.003462503,0
1786467461.517709,0.001066,0.000433,-0.000184,-0.113525,0.017334,-0.993408,0.997220,0.011636,0.073598,-0.000551,-0.984026,0.007043,-0.177888,0.000066,1.339661,8.441448,0.035509,-0.849275,20.492906,-0.161241,-3.609425,-0.118373,8.171545,0,0.003474213,0
1786467461.537432,0.000134,0.000300,-0.000583,-0.114014,0.016846,-0.993652,0.997195,0.011686,0.073924,-0.000554,-0.984610,0.007001,-0.174626,0.000068,1.345531,8.478917,0.036035,-0.842713,20.113205,-0.157370,-3.548463,-0.119373,8.194498,0,0.003459886,0
1786467461.557416,0.000933,0.000300,-0.000850,-0.113037,0.017090,-0.993408,0.997170,0.011741,0.074250,-0.000559,-0.985170,0.007003,-0.171436,0.000074,1.351894,8.516381,0.036419,-0.841543,19.742109,-0.154995,-3.486515,-0.118278,8.217315,0,0.003460269,0
1786467461.577412,0.000533,0.001232,-0.000317,-0.113281,0.016846,-0.993896,0.997145,0.011794,0.074580,-0.000561,-0.985713,0.006980,-0.168289,0.000073,1.358038,8.554377,0.037123,-0.837246,19.376160,-0.151459,-3.427199,-0.118690,8.238421,0,0.003461028,0
1786467461.597410,0.000800,0.000433,-0.000450,-0.113037,0.017578,-0.992676,0.997120,0.011848,0.074907,-0.000563,-0.986239,0.007060,-0.165175,0.000075,1.364431,8.591900,0.037758,-0.845438,19.014210,-0.150271,-3.367766,-0.117530,8.260680,0,0.003461705,0
1786467461.617425,0.000533,0.000833,-0.000317,-0.114258,0.016602,-0.993164,0.997095,0.011901,0.075236,-0.000565,-0.986755,0.006998,-0.162066,0.000074,1.370522,8.629674,0.038456,-0.836678,18.653151,-0.146059,-3.310535,-0.120170,8.280519,0,0.003462924,0
1786467461.637409,0.000267,0.000566,-0.000583,-0.113525,0.016846,-0.993408,0.997069,0.011952,0.075563,-0.000568,-0.987251,0.006992,-0.159019,0.000076,1.376488,8.667292,0.039008,-0.834688,18.299374,-0.143297,-3.251243,-0.118865,8.300268,0,0.003462537,0
1786467461.657420,0.000400,0.000566,-0.000450,-0.114014,0.017090,-0.992432,0.997044,0.012004,0.075890,-0.000571,-0.987734,0.007024,-0.155989,0.000077,1.382566,8.704903,0.039644,-0.837113,17.947839,-0.141138,-3.194282,-0.118544,8.320444,0,0.003463367,0
1786467461.677413,0.000533,0.000167,-0.000184,-0.113525,0.018066,-0.993652,0.997018,0.012058,0.076215,-0.000572,-0.988198,0.007169,-0.153013,0.000076,1.388893,8.742259,0.040456,-0.853062,17.602605,-0.140840,-3.136518,-0.118193,8.337963,0,0.003463280,0
1786467461.697421,0.000267,0.000300,-0.000317,-0.114014,0.016846,-0.993164,0.996993,0.012109,0.076541,-0.000574,-0.988651,0.007125,-0.150061,0.000075,1.394875,8.779720,0.041168,-0.846624,17.260414,-0.137187,-3.080743,-0.122338,8.356448,0,0.003463801,0
1786467461.717512,0.000533,0.000833,-0.000450,-0.113525,0.017090,-0.993408,0.996967,0.012162,0.076870,-0.000576,-0.989086,0.007127,-0.147167,0.000076,1.401046,8.817482,0.041822,-0.845765,16.925000,-0.134660,-3.024456,-0.121260,8.373739,0,0.003467761,0
1786467461.737527,0.000533,0.000034,-0.000317,-0.114014,0.016846,-0.992920,0.996941,0.012214,0.077194,-0.000578,-0.989511,0.007103,-0.144285,0.000076,1.407183,8.854789,0.042539,-0.841770,16.591199,-0.131540,-2.969903,-0.121604,8.391153,0,0.003467502,0
1786467461.757485,0.000134,0.000167,-0.000717,-0.113525,0.016357,-0.993652,0.996915,0.012264,0.077520,-0.000582,-0.989919,0.007032,-0.141461,0.000079,1.413001,8.892188,0.043021,-0.832280,16.264276,-0.128088,-2.914713,-0.121777,8.406899,0,0.003464878,0
1786467461.777445,0.000400,0.000566,-0.000450,-0.114014,0.016602,-0.993408,0.996889,0.012316,0.077847,-0.000584,-0.990315,0.007014,-0.138661,0.000080,1.419020,8.929807,0.043671,-0.829163,15.940276,-0.125351,-2.861588,-0.120141,8.422973,0,0.003462980,0
1786467461.797587,0.000666,0.001232,-0.000983,-0.113281,0.017334,-0.992676,0.996863,0.012369,0.078178,-0.000589,-0.990694,0.007099,-0.135920,0.000086,1.425264,8.967798,0.044045,-0.838205,15.623181,-0.124989,-2.807683,-0.119096,8.439062,0,0.003469316,0
1786467461.817484,0.000400,0.000433,-0.000317,-0.114258,0.017334,-0.992920,0.996836,0.012422,0.078504,-0.000591,-0.991066,0.007162,-0.133180,0.000086,1.431394,9.005323,0.044793,-0.844641,15.306345,-0.123415,-2.756264,-0.120815,8.453604,0,0.003463626,0
1786467461.837461,0.000933,0.000433,-0.000450,-0.113770,0.017090,-0.993164,0.996810,0.012476,0.078831,-0.000594,-0.991423,0.007176,-0.130493,0.000087,1.437795,9.042853,0.045465,-0.845403,14.995679,-0.121341,-2.703492,-0.122239,8.467810,0,0.003462762,0
1786467461.857707,0.000400,0.000300,-0.000583,-0.113525,0.016846,-0.994141,0.996783,0.012528,0.079157,-0.000597,-0.991768,0.007162,-0.127847,0.000089,1.443852,9.080314,0.046057,-0.842836,14.689897,-0.118946,-2.651881,-0.122920,8.480737,0,0.003473598,0
1786467461.877429,0.000400,0.000167,-0.000983,-0.113525,0.017334,-0.993652,0.996757,0.012581,0.079482,-0.000602,-0.992101,0.007219,-0.125236,0.000095,1.449941,9.117693,0.046430,-0.848674,14.388267,-0.118065,-2.601246,-0.122225,8.494649,0,0.003459400,0
1786467461.897443,0.000533,0.000833,-0.000317,-0.113281,0.016602,-0.993652,0.996730,0.012633,0.079810,-0.000604,-0.992421,0.007169,-0.122674,0.000094,1.456075,9.155458,0.047189,-0.842028,14.092415,-0.114944,-2.551140,-0.124057,8.507566,0,0.003461163,0
1786467461.917450,0.000400,0.000566,-0.000317,-0.113525,0.017334,-0.993652,0.996703,0.012685,0.080137,-0.000605,-0.992731,0.007232,-0.120133,0.000093,1.462228,9.193056,0.047962,-0.848461,13.799158,-0.113450,-2.502236,-0.122430,8.520055,0,0.003462170,0
1786467461.937443,0.000666,0.000433,-0.000983,-0.113770,0.017090,-0.993164,0.996676,0.012739,0.080464,-0.000611,-0.993033,0.007248,-0.117617,0.000099,1.468435,9.230592,0.048345,-0.849653,13.508781,-0.112096,-2.453722,-0.123902,8.532635,0,0.003462368,0
1786467461.957469,0.000533,0.000300,-0.000450,-0.113281,0.016846,-0.992920,0.996649,0.012791,0.080790,-0.000613,-0.993322,0.007234,-0.115146,0.000100,1.474593,9.268048,0.049036,-0.847286,13.223700,-0.109739,-2.404898,-0.124518,8.544617,0,0.003463884,0
1786467461.977436,0.000267,0.001099,-0.000184,-0.114014,0.017090,-0.993408,0.996621,0.012843,0.081119,-0.000614,-0.993603,0.007260,-0.112697,0.000098,1.480645,9.305954,0.049900,-0.849425,12.941163,-0.107608,-2.358295,-0.124085,8.555381,0,0.003462532,0
1786467461.997441,0.000134,0.000433,-0.000717,-0.114014,0.017334,-0.993896,0.996594,0.012894,0.081446,-0.000618,-0.993874,0.007312,-0.110274,0.000101,1.486604,9.343480,0.050454,-0.854885,12.661810,-0.106440,-2.311047,-0.124409,8.565866,0,0.003463146,0
1786467462.017427,0.000400,0.000699,-0.000317,-0.113525,0.016846,-0.993652,0.996567,0.012946,0.081774,-0.000620,-0.994135,0.007291,-0.107901,0.000100,1.492698,9.381162,0.051240,-0.851668,12.388182,-0.103937,-2.263970,-0.125897,8.576683,0,0.003462764,0
1786467462.037427,0.000800,0.000034,-0.000450,-0.113281,0.016602,-0.993408,0.996539,0.012999,0.082098,-0.000622,-0.994387,0.007247,-0.105558,0.000101,1.498981,9.418469,0.051937,-0.845867,12.118224,-0.101403,-2.217864,-0.125684,8.587124,0,0.003463107,0
1786467462.057440,0.000134,0.000300,-0.000450,-0.113037,0.016846,-0.993164,0.996512,0.013050,0.082424,-0.000625,-0.994629,0.007256,-0.103254,0.000101,1.504923,9.455922,0.052649,-0.846262,11.852789,-0.099499,-2.172502,-0.124741,8.597178,0,0.003463895,0
1786467462.077430,0.000400,0.000566,-0.000583,-0.113525,0.017090,-0.993408,0.996484,0.013102,0.082751,-0.000628,-0.994863,0.007294,-0.100971,0.000103,1.511029,9.493525,0.053295,-0.850089,11.589790,-0.098144,-2.128585,-0.124657,8.606360,0,0.003463548,0
1786467462.097446,0.000533,0.001232,-0.000450,-0.113525,0.017334,-0.993164,0.996456,0.013155,0.083081,-0.000630,-0.995088,0.007355,-0.098724,0.000104,1.517260,9.531503,0.054039,-0.856595,11.330971,-0.096940,-2.084622,-0.125158,8.615716,0,0.003464353,0
1786467462.117461,0.000400,0.000034,-0.000583,-0.114014,0.016846,-0.992676,0.996428,0.013207,0.083406,-0.000633,-0.995308,0.007342,-0.096482,0.000106,1.523325,9.568806,0.054678,-0.854473,11.072824,-0.095001,-2.041450,-0.126899,8.625039,0,0.003464909,0
1786467462.137423,0.000933,0.001099,-0.000717,-0.113525,0.017578,-0.993408,0.996400,0.013262,0.083735,-0.000637,-0.995517,0.007424,-0.094294,0.000109,1.529794,9.606705,0.055278,-0.863511,10.820990,-0.094384,-1.997808,-0.125841,8.632858,0,0.003463115,0
1786467462.157438,0.000800,0.000966,-0.000717,-0.114014,0.016846,-0.993896,0.996371,0.013316,0.084064,-0.000641,-0.995720,0.007393,-0.092125,0.000113,1.536080,9.644544,0.055863,-0.859356,10.571388,-0.092500,-1.955938,-0.128240,8.640540,0,0.003463962,0
1786467462.177447,0.000267,0.000566,-0.000317,-0.113281,0.017090,-0.993652,0.996343,0.013368,0.084391,-0.000643,-0.995914,0.007410,-0.089999,0.000112,1.542149,9.682141,0.056686,-0.860821,10.326742,-0.090673,-1.913137,-0.127504,8.648739,0,0.003464419,0
1786467462.197446,0.000800,0.000699,-0.000450,-0.113770,0.017578,-0.993652,0.996314,0.013422,0.084719,-0.000645,-0.996102,0.007484,-0.087890,0.000113,1.548566,9.719806,0.057446,-0.868843,10.084062,-0.089644,-1.872457,-0.127278,8.656329,0,0.003464270,0
1786467462.217530,0.000933,0.000433,-0.000450,-0.113281,0.017090,-0.993164,0.996286,0.013477,0.085045,-0.000648,-0.996283,0.007479,-0.085818,0.000114,1.555006,9.757328,0.058198,-0.867724,9.845718,-0.087843,-1.831025,-0.129202,8.664168,0,0.003467807,0
1786467462.237443,0.000400,0.000433,-0.000583,-0.113525,0.016357,-0.993408,0.996257,0.013529,0.085371,-0.000651,-0.996458,0.007388,-0.083771,0.000116,1.561029,9.794866,0.058859,-0.856817,9.610362,-0.085339,-1.791075,-0.129960,8.670986,0,0.003463200,0
1786467462.257428,0.000533,0.000433,-0.000583,-0.113770,0.017090,-0.993408,0.996228,0.013581,0.085698,-0.000654,-0.996626,0.007420,-0.081745,0.000118,1.567220,9.832390,0.059540,-0.859980,9.377345,-0.084065,-1.751602,-0.127463,8.677823,0,0.003462804,0
1786467462.277429,0.000400,0.000966,-0.000450,-0.113525,0.017334,-0.993408,0.996199,0.013634,0.086026,-0.000657,-0.996786,0.007477,-0.079756,0.000118,1.573389,9.870211,0.060317,-0.866233,9.148775,-0.082903,-1.712111,-0.127873,8.684378,0,0.003463155,0
1786467462.297456,0.000800,0.000833,-0.000450,-0.113525,0.016357,-0.993408,0.996170,0.013687,0.086355,-0.000659,-0.996942,0.007395,-0.077796,0.000119,1.579659,9.907975,0.061074,-0.856284,8.923453,-0.080516,-1.673461,-0.129923,8.690667,0,0.003464531,0
1786467462.317458,0.000134,0.000566,-0.000450,-0.113525,0.016846,-0.993164,0.996141,0.013738,0.086682,-0.000662,-0.997091,0.007407,-0.075858,0.000120,1.585613,9.945576,0.061842,-0.857277,8.700711,-0.078962,-1.635310,-0.127972,8.697001,0,0.003464486,0
1786467462.337801,0.000134,0.000566,-0.000317,-0.114014,0.017090,-0.992920,0.996112,0.013789,0.087009,-0.000663,-0.997236,0.007450,-0.073930,0.000119,1.591604,9.983170,0.062696,-0.861846,8.479192,-0.077541,-1.598113,-0.127979,8.703085,0,0.003479049,0
1786467462.357726,0.000800,0.001099,-0.000450,-0.113770,0.016846,-0.993896,0.996082,0.013843,0.087338,-0.000666,-0.997374,0.007447,-0.072045,0.000120,1.597938,10.021076,0.063480,-0.861072,8.262588,-0.075963,-1.560467,-0.128957,8.707748,0,0.003472162,0
1786467462.377665,0.000400,0.000699,-0.000717,-0.114014,0.016846,-0.993164,0.996053,0.013894,0.087666,-0.000670,-0.997507,0.007452,-0.070175,0.000123,1.604012,10.058758,0.064106,-0.861305,8.047799,-0.074733,-1.523942,-0.128991,8.713892,0,0.003467563,0
1786467462.397678,0.000267,0.000433,-0.000450,-0.113770,0.016846,-0.993408,0.996023,0.013945,0.087992,-0.000672,-0.997635,0.007459,-0.068335,0.000124,1.610043,10.096282,0.064887,-0.861816,7.836447,-0.073236,-1.487244,-0.129127,8.718871,0,0.003467270,0
1786467462.417534,0.000533,0.000566,-0.000317,-0.113770,0.017578,-0.993408,0.995994,0.013999,0.088319,-0.000674,-0.997756,0.007560,-0.066522,0.000123,1.616336,10.133865,0.065769,-0.873010,7.628189,-0.072349,-1.451430,-0.128501,8.723866,0,0.003460363,0
1786467462.437502,0.000533,0.000433,-0.000583,-0.113770,0.016602,-0.993408,0.995964,0.014051,0.088645,-0.000677,-0.997874,0.007510,-0.064735,0.000125,1.622477,10.171395,0.066476,-0.866957,7.423003,-0.070630,-1.416071,-0.131456,8.728638,0,0.003459895,0
1786467462.457487,0.000800,0.000300,-0.000317,-0.114258,0.017090,-0.993408,0.995934,0.014105,0.088970,-0.000679,-0.997988,0.007537,-0.062960,0.000125,1.628853,10.208835,0.067349,-0.869791,7.219127,-0.069224,-1.381706,-0.129951,8.733259,0,0.003460286,0
1786467462.477496,0.000933,0.000966,-0.000717,-0.114014,0.017334,-0.993652,0.995904,0.014160,0.089299,-0.000683,-0.998095,0.007590,-0.061221,0.000129,1.635304,10.246657,0.068011,-0.875604,7.019469,-0.068489,-1.346967,-0.130239,8.737440,0,0.003461622,0
1786467462.497450,0.000400,0.000034,-0.000450,-0.113525,0.016357,-0.993652,0.995874,0.014212,0.089623,-0.000686,-0.998199,0.007511,-0.059510,0.000129,1.641361,10.283959,0.068797,-0.866166,6.823103,-0.066501,-1.312377,-0.132364,8.741682,0,0.003460273,0
1786467462.517479,0.000533,0.000433,-0.000717,-0.114014,0.016846,-0.993164,0.995844,0.014264,0.089950,-0.000690,-0.998299,0.007519,-0.057814,0.000133,1.647522,10.321485,0.069447,-0.866849,6.628358,-0.065457,-1.279566,-0.130313,8.746237,0,0.003462463,0
1786467462.537429,0.000933,0.000833,-0.000717,-0.114258,0.017090,-0.993164,0.995813,0.014319,0.090278,-0.000694,-0.998394,0.007556,-0.056139,0.000137,1.653941,10.359235,0.070114,-0.870855,6.436182,-0.064636,-1.246774,-0.130167,8.750132,0,0.003460727,0
1786467462.557541,0.000800,0.001232,-0.000317,-0.113281,0.017578,-0.992920,0.995783,0.014374,0.090608,-0.000696,-0.998484,0.007650,-0.054511,0.000136,1.660410,10.397195,0.071038,-0.881469,6.249255,-0.063753,-1.213188,-0.130432,8.754100,0,0.003466348,0
1786467462.577448,0.000800,0.000167,-0.000317,-0.114014,0.017578,-0.992920,0.995752,0.014428,0.090932,-0.000697,-0.998571,0.007720,-0.052880,0.000136,1.666864,10.434546,0.071946,-0.889249,6.062118,-0.062676,-1.181902,-0.132293,8.757632,0,0.003461805,0
1786467462.597623,0.000666,0.000167,-0.000850,-0.114014,0.016846,-0.993164,0.995722,0.014481,0.091257,-0.000702,-0.998655,0.007680,-0.051273,0.000141,1.673094,10.471920,0.072532,-0.884407,5.877721,-0.061549,-1.150045,-0.134438,8.760802,0,0.003469824,0
1786467462.617505,0.000267,0.000566,-0.000450,-0.113525,0.016846,-0.992920,0.995691,0.014533,0.091584,-0.000705,-0.998735,0.007658,-0.049703,0.000141,1.679150,10.509515,0.073362,-0.881657,5.697613,-0.060090,-1.118234,-0.133735,8.764333,0,0.003463412,0
1786467462.637459,0.000267,0.000566,-0.000717,-0.113281,0.017334,-0.993408,0.995660,0.014584,0.091910,-0.000708,-0.998810,0.007707,-0.048161,0.000145,1.685246,10.547104,0.074054,-0.887104,5.520653,-0.059362,-1.087309,-0.132831,8.766962,0,0.003461606,0
1786467462.657481,0.000134,0.000833,-0.000450,-0.113770,0.016113,-0.993408,0.995629,0.014634,0.092239,-0.000711,-0.998883,0.007589,-0.046635,0.000145,1.691133,10.584865,0.074880,-0.873321,5.345652,-0.057430,-1.057697,-0.135046,8.769903,0,0.003463179,0
1786467462.677438,0.000533,0.000300,-0.000850,-0.113281,0.016846,-0.992920,0.995598,0.014687,0.092564,-0.000715,-0.998952,0.007600,-0.045133,0.000150,1.697307,10.622312,0.075486,-0.874396,5.173307,-0.056697,-1.027275,-0.131937,8.773276,0,0.003461563,0
1786467462.697431,0.000533,0.000300,-0.000983,-0.114014,0.017090,-0.993408,0.995567,0.014739,0.092889,-0.000720,-0.999018,0.007640,-0.043637,0.000156,1.703484,10.659758,0.076023,-0.878831,5.001778,-0.056254,-0.998623,-0.131919,8.775490,0,0.003461868,0
1786467462.717665,0.000267,0.001099,-0.000051,-0.113770,0.016602,-0.992676,0.995536,0.014790,0.093219,-0.000721,-0.999081,0.007613,-0.042174,0.000152,1.709557,10.697654,0.077110,-0.875441,4.833891,-0.054439,-0.969287,-0.133238,8.778800,0,0.003472410,0
1786467462.737503,0.000666,0.000833,-0.000450,-0.113525,0.017334,-0.993652,0.995504,0.014844,0.093547,-0.000723,-0.999140,0.007685,-0.040735,0.000153,1.715913,10.735390,0.077981,-0.883598,4.668856,-0.053600,-0.940347,-0.131896,8.780303,0,0.003463445,0
1786467462.757471,0.000400,0.000566,-0.000850,-0.113770,0.016357,-0.992676,0.995472,0.014896,0.093873,-0.000728,-0.999198,0.007618,-0.039309,0.000158,1.721946,10.772998,0.078596,-0.875760,4.505371,-0.052559,-0.912379,-0.134357,8.783602,0,0.003462241,0
1786467462.777475,0.000001,0.000966,-0.000850,-0.114014,0.018066,-0.993408,0.995441,0.014947,0.094202,-0.000732,-0.999251,0.007794,-0.037900,0.000162,1.727962,10.810803,0.079260,-0.895734,4.343820,-0.052590,-0.884800,-0.131422,8.785121,0,0.003462861,0
1786467462.797455,0.000933,0.000433,-0.000583,-0.114014,0.017090,-0.993408,0.995409,0.015001,0.094528,-0.000735,-0.999303,0.007790,-0.036509,0.000164,1.734419,10.848316,0.080053,-0.895169,4.184325,-0.051561,-0.857119,-0.135655,8.787214,0,0.003462319,0
1786467462.817729,0.000800,0.000433,0.000082,-0.113525,0.017334,-0.992432,0.995377,0.015056,0.094854,-0.000735,-0.999352,0.007825,-0.035143,0.000160,1.740914,10.885812,0.081245,-0.899013,4.027622,-0.049960,-0.829402,-0.135360,8.790222,0,0.003474465,0
1786467462.837466,-0.000133,0.000833,-0.000317,-0.113525,0.017334,-0.993164,0.995345,0.015106,0.095181,-0.000737,-0.999398,0.007858,-0.033803,0.000159,1.746835,10.923543,0.082215,-0.902666,3.874062,-0.048796,-0.802714,-0.136236,8.791392,0,0.003460682,0
1786467462.857460,0.000933,0.000566,-0.000583,-0.113770,0.017578,-0.993652,0.995313,0.015161,0.095508,-0.000740,-0.999441,0.007907,-0.032477,0.000162,1.753363,10.961122,0.083035,-0.908150,3.721928,-0.048041,-0.776678,-0.136439,8.792712,0,0.003461260,0
1786467462.877445,0.000267,0.000566,-0.000450,-0.113770,0.017090,-0.992920,0.995281,0.015213,0.095834,-0.000742,-0.999483,0.007889,-0.031168,0.000162,1.759466,10.998707,0.083924,-0.905876,3.571937,-0.046872,-0.750687,-0.138020,8.795153,0,0.003461358,0
1786467462.897459,0.000267,0.000167,-0.000317,-0.113281,0.017334,-0.993408,0.995249,0.015265,0.096159,-0.000744,-0.999522,0.007909,-0.029884,0.000162,1.765623,11.036055,0.084897,-0.908061,3.424688,-0.045717,-0.724493,-0.137411,8.796310,0,0.003462608,0
1786467462.917434,0.000933,0.000167,-0.000583,-0.113037,0.016602,-0.993408,0.995216,0.015319,0.096483,-0.000748,-0.999560,0.007827,-0.028624,0.000164,1.772048,11.073421,0.085701,-0.898579,3.280243,-0.044572,-0.699083,-0.138414,8.797844,0,0.003461923,0
1786467462.937444,0.000400,0.000300,-0.000450,-0.113525,0.017090,-0.992920,0.995184,0.015371,0.096809,-0.000750,-0.999595,0.007838,-0.027372,0.000165,1.778236,11.110852,0.086600,-0.899700,3.136701,-0.043581,-0.674909,-0.136430,8.799801,0,0.003462871,0
1786467462.957453,0.000001,0.000833,-0.000717,-0.113770,0.016846,-0.993408,0.995151,0.015421,0.097136,-0.000754,-0.999628,0.007818,-0.026140,0.000169,1.784134,11.148598,0.087350,-0.897349,2.995481,-0.042809,-0.650718,-0.136969,8.800678,0,0.003463573,0
1786467462.977441,0.000933,0.000167,-0.000450,-0.113281,0.017090,-0.993164,0.995119,0.015476,0.097461,-0.000756,-0.999659,0.007832,-0.024926,0.000170,1.790634,11.185951,0.088256,-0.898867,2.856399,-0.041878,-0.625956,-0.136157,8.802232,0,0.003463166,0
1786467462.997448,0.000533,0.000433,-0.000317,-0.113770,0.017334,-0.993164,0.995086,0.015529,0.097787,-0.000758,-0.999687,0.007879,-0.023724,0.000170,1.796944,11.223451,0.089252,-0.904079,2.718559,-0.040883,-0.602714,-0.136268,8.803439,0,0.003463734,0
1786467463.017434,0.000001,0.000966,-0.000450,-0.114014,0.016846,-0.993408,0.995053,0.015579,0.098115,-0.000761,-0.999715,0.007855,-0.022541,0.000170,1.802874,11.261267,0.090172,-0.901222,2.583023,-0.039857,-0.579489,-0.137771,8.804322,0,0.003463185,0
1786467463.037423,0.000267,0.000566,-0.000583,-0.113525,0.017090,-0.993408,0.995020,0.015631,0.098442,-0.000764,-0.999740,0.007870,-0.021380,0.000173,1.808979,11.298851,0.091019,-0.902879,2.449881,-0.039111,-0.555742,-0.137004,8.805408,0,0.003462967,0
1786467463.057435,0.000533,0.000433,-0.000583,-0.113525,0.017578,-0.993164,0.994987,0.015684,0.098767,-0.000767,-0.999764,0.007945,-0.020232,0.000175,1.815297,11.336350,0.091879,-0.911388,2.318305,-0.038518,-0.532941,-0.136763,8.806651,0,0.003463754,0
1786467463.077443,0.000400,0.000833,-0.000450,-0.114258,0.016846,-0.993408,0.994953,0.015736,0.099095,-0.000769,-0.999786,0.007906,-0.019094,0.000176,1.821455,11.374089,0.092809,-0.906876,2.187916,-0.037516,-0.511244,-0.138990,8.807317,0,0.003464184,0
1786467463.097445,0.000666,0.000833,-0.000450,-0.114258,0.016846,-0.992920,0.994920,0.015789,0.099423,-0.000772,-0.999807,0.007880,-0.017972,0.000177,1.827767,11.411828,0.093742,-0.903759,2.059278,-0.036571,-0.488936,-0.138180,8.808696,0,0.003464259,0
1786467463.117430,0.000933,0.000300,-0.000717,-0.114014,0.016846,-0.993408,0.994886,0.015844,0.099748,-0.000776,-0.999827,0.007860,-0.016865,0.000181,1.834206,11.449266,0.094516,-0.901462,1.932470,-0.035964,-0.466577,-0.137609,8.809038,0,0.003463590,0
1786467463.137434,0.000400,0.000699,-0.000184,-0.113281,0.016846,-0.993652,0.994853,0.015896,0.100075,-0.000777,-0.999844,0.007853,-0.015791,0.000180,1.840418,11.486921,0.095615,-0.900516,1.809389,-0.034806,-0.444226,-0.137328,8.809552,0,0.003463866,0
1786467463.157432,0.000533,0.000833,-0.000583,-0.114014,0.017334,-0.993164,0.994819,0.015949,0.100403,-0.000780,-0.999860,0.007912,-0.014720,0.000182,1.846708,11.524652,0.096496,-0.907212,1.686598,-0.034225,-0.423921,-0.136666,8.810730,0,0.003463836,0
1786467463.177463,0.000800,0.000966,-0.000317,-0.114258,0.016846,-0.993164,0.994785,0.016003,0.100731,-0.000782,-0.999876,0.007891,-0.013662,0.000182,1.853120,11.562463,0.097527,-0.904787,1.565410,-0.033223,-0.403178,-0.138256,8.811354,0,0.003465206,0
1786467463.197460,0.000267,0.000300,-0.000583,-0.113525,0.017334,-0.993652,0.994751,0.016055,0.101056,-0.000785,-0.999889,0.007945,-0.012625,0.000184,1.859268,11.599887,0.098409,-0.910949,1.446564,-0.032645,-0.381574,-0.137467,8.811463,0,0.003464818,0
1786467463.217475,0.000800,0.000300,-0.000317,-0.114014,0.016846,-0.993652,0.994717,0.016109,0.101381,-0.000787,-0.999901,0.007919,-0.011596,0.000184,1.865686,11.637315,0.099437,-0.907881,1.328675,-0.031662,-0.361721,-0.138913,8.811983,0,0.003465296,0
1786467463.237576,0.000800,0.000699,-0.000450,-0.113525,0.017090,-0.992920,0.994683,0.016163,0.101708,-0.000790,-0.999912,0.007936,-0.010592,0.000186,1.872130,11.674969,0.100407,-0.909758,1.213548,-0.030921,-0.341133,-0.138151,8.813211,0,0.003469302,0
1786467463.257480,0.000267,0.000433,-0.001116,-0.113281,0.016846,-0.993408,0.994649,0.016214,0.102033,-0.000796,-0.999922,0.007922,-0.009605,0.000193,1.878167,11.712487,0.100982,-0.908098,1.100464,-0.030894,-0.321126,-0.138831,8.813154,0,0.003463939,0
1786467463.277457,0.000666,0.000566,-0.000051,-0.113525,0.016357,-0.993408,0.994614,0.016267,0.102360,-0.000796,-0.999932,0.007847,-0.008631,0.000191,1.884499,11.750070,0.102174,-0.899490,0.988867,-0.029624,-0.302042,-0.138959,8.813550,0,0.003462968,0
1786467463.297802,0.000134,0.000566,-0.000317,-0.114014,0.017822,-0.993652,0.994580,0.016319,0.102686,-0.000798,-0.999939,0.007988,-0.007659,0.000191,1.890660,11.787631,0.103248,-0.915558,0.877437,-0.028869,-0.283428,-0.136131,8.813676,0,0.003477999,0
1786467463.317819,0.000800,0.000699,-0.000717,-0.114014,0.016846,-0.993896,0.994545,0.016372,0.103013,-0.000802,-0.999946,0.007959,-0.006705,0.000195,1.897042,11.825294,0.104071,-0.912288,0.768168,-0.028429,-0.264375,-0.139734,8.813701,0,0.003475300,0
1786467463.337672,0.000933,0.000966,-0.000317,-0.114258,0.017334,-0.992676,0.994510,0.016428,0.103341,-0.000804,-0.999951,0.008005,-0.005762,0.000195,1.903604,11.863093,0.105149,-0.917539,0.660091,-0.027599,-0.245964,-0.138664,8.815200,0,0.003466268,0
1786467463.357516,0.000267,0.000566,-0.000317,-0.114014,0.017090,-0.992920,0.994475,0.016479,0.103667,-0.000806,-0.999956,0.008014,-0.004835,0.000195,1.909761,11.900666,0.106218,-0.918463,0.553810,-0.026751,-0.227139,-0.139940,8.815171,0,0.003459062,0
1786467463.377464,0.000533,0.001099,-0.001116,-0.114014,0.017578,-0.992676,0.994440,0.016532,0.103996,-0.000812,-0.999960,0.008084,-0.003924,0.000203,1.916036,11.938551,0.106846,-0.926441,0.449503,-0.026856,-0.209045,-0.139562,8.815605,0,0.003458106,0
1786467463.397619,0.000134,0.000833,-0.000583,-0.113281,0.018066,-0.993164,0.994405,0.016584,0.104323,-0.000814,-0.999962,0.008202,-0.003035,0.000205,1.922217,11.976261,0.107799,-0.940024,0.347587,-0.026380,-0.190405,-0.140519,8.815251,0,0.003466160,0
1786467463.417498,0.000533,0.000699,-0.000450,-0.114258,0.016357,-0.992920,0.994370,0.016636,0.104650,-0.000817,-0.999965,0.008065,-0.002147,0.000207,1.928426,12.013926,0.108787,-0.924269,0.245838,-0.025657,-0.173905,-0.144477,8.815580,0,0.003460491,0
1786467463.437449,0.000800,0.001099,-0.000450,-0.114014,0.017578,-0.993408,0.994334,0.016691,0.104979,-0.000820,-0.999966,0.008123,-0.001277,0.000208,1.934938,12.051797,0.109818,-0.930885,0.146177,-0.025017,-0.156318,-0.140508,8.815227,0,0.003459311,0
1786467463.457443,0.000666,0.000034,-0.000450,-0.113770,0.017090,-0.993652,0.994299,0.016744,0.105303,-0.000822,-0.999967,0.008105,-0.000415,0.000209,1.941319,12.089066,0.110821,-0.928734,0.047371,-0.024363,-0.138803,-0.142155,8.815023,0,0.003460230,0
1786467463.477430,0.000267,0.000566,-0.000450,-0.114014,0.017090,-0.993408,0.994263,0.016796,0.105629,-0.000825,-0.999967,0.008096,0.000433,0.000211,1.947471,12.126640,0.111839,-0.927733,-0.049868,-0.023731,-0.122234,-0.141866,8.815300,0,0.003460626,0
1786467463.497457,0.000400,0.000300,-0.000583,-0.113770,0.017090,-0.994385,0.994228,0.016848,0.105953,-0.000828,-0.999966,0.008089,0.001267,0.000213,1.953689,12.164063,0.112778,-0.926904,-0.145426,-0.023268,-0.105288,-0.141668,8.814327,0,0.003462620,0
1786467463.517458,0.000533,0.000167,-0.000583,-0.113770,0.017090,-0.992920,0.994193,0.016901,0.106278,-0.000831,-0.999965,0.008088,0.002093,0.000216,1.959983,12.201409,0.113718,-0.926745,-0.240039,-0.022809,-0.088901,-0.141499,8.815767,0,0.003463063,0
1786467463.537441,0.000001,0.000433,-0.000717,-0.113525,0.017578,-0.993164,0.994157,0.016952,0.106603,-0.000835,-0.999963,0.008156,0.002901,0.000220,1.966020,12.238901,0.114603,-0.934515,-0.332646,-0.022498,-0.072509,-0.141087,8.815467,0,0.003462576,0
1786467463.557601,0.000267,0.000833,-0.000184,-0.114014,0.016846,-0.992920,0.994121,0.017003,0.106930,-0.000836,-0.999960,0.008109,0.003700,0.000219,1.972185,12.276625,0.115793,-0.929214,-0.424148,-0.021633,-0.057223,-0.143096,8.815612,0,0.003469784,0
1786467463.577469,0.000933,0.000699,-0.000317,-0.113281,0.017090,-0.993652,0.994085,0.017058,0.107257,-0.000838,-0.999957,0.008104,0.004477,0.000219,1.978757,12.314270,0.116915,-0.928583,-0.513158,-0.020928,-0.040796,-0.141814,8.814793,0,0.003462760,0
1786467463.597455,0.000001,0.000833,-0.000717,-0.114014,0.017578,-0.993164,0.994048,0.017109,0.107584,-0.000841,-0.999953,0.008172,0.005253,0.000223,1.984791,12.351990,0.117819,-0.936365,-0.602116,-0.020640,-0.026314,-0.141396,8.815156,0,0.003462465,0
1786467463.617473,0.000933,0.000566,-0.000317,-0.114014,0.016846,-0.993652,0.994012,0.017163,0.107910,-0.000843,-0.999949,0.008120,0.006018,0.000223,1.991326,12.389563,0.118938,-0.930414,-0.689771,-0.019974,-0.011033,-0.143276,8.814500,0,0.003463665,0
1786467463.637465,0.000800,0.000300,-0.000583,-0.114014,0.017090,-0.993652,0.993976,0.017217,0.108235,-0.000847,-0.999944,0.008117,0.006775,0.000226,1.997780,12.426984,0.119906,-0.930026,-0.776535,-0.019590,0.004027,-0.142036,8.814347,0,0.003463423,0
1786467463.657467,0.000533,0.000167,-0.000583,-0.114258,0.016846,-0.992920,0.993940,0.017270,0.108559,-0.000850,-0.999939,0.008088,0.007526,0.000229,2.004050,12.464333,0.120869,-0.926655,-0.862642,-0.019235,0.018663,-0.142263,8.814889,0,0.003463657,0
1786467463.677450,0.000933,0.000300,-0.000450,-0.113770,0.017578,-0.993408,0.993903,0.017325,0.108884,-0.000853,-0.999933,0.008160,0.008260,0.000230,2.010662,12.501741,0.121937,-0.934929,-0.946675,-0.018654,0.033866,-0.140872,8.814201,0,0.003463051,0
1786467463.697459,0.000933,0.000833,-0.000583,-0.113770,0.016357,-0.992676,0.993866,0.017379,0.109211,-0.000856,-0.999927,0.008057,0.008975,0.000233,2.017121,12.539478,0.122912,-0.923099,-1.028677,-0.018416,0.048149,-0.143505,8.814685,0,0.003463682,0
1786467463.717483,0.000001,0.001232,-0.000717,-0.113770,0.016357,-0.993652,0.993829,0.017429,0.109541,-0.000860,-0.999921,0.007988,0.009675,0.000237,2.023034,12.577446,0.123821,-0.915225,-1.108910,-0.018336,0.062109,-0.141658,8.813498,0,0.003464814,0
1786467463.737591,0.000666,0.000300,-0.000450,-0.113281,0.017090,-0.993652,0.993792,0.017482,0.109865,-0.000862,-0.999914,0.008031,0.010370,0.000239,2.029452,12.614862,0.124892,-0.920113,-1.188537,-0.017824,0.076513,-0.139443,8.813262,0,0.003469266,0
1786467463.757495,0.000533,0.000566,-0.000717,-0.113770,0.016846,-0.993408,0.993755,0.017535,0.110191,-0.000866,-0.999907,0.008032,0.011058,0.000243,2.035725,12.652439,0.125808,-0.920295,-1.267358,-0.017664,0.089605,-0.140546,8.813221,0,0.003463892,0
1786467463.777527,0.000267,0.000167,-0.000850,-0.113525,0.016846,-0.993652,0.993718,0.017586,0.110515,-0.000871,-0.999899,0.008037,0.011736,0.000248,2.041834,12.689790,0.126643,-0.920797,-1.345075,-0.017664,0.103420,-0.140623,8.812684,0,0.003465318,0
1786467463.797480,0.000134,0.000699,-0.000583,-0.114258,0.017090,-0.993652,0.993681,0.017637,0.110842,-0.000874,-0.999890,0.008073,0.012409,0.000251,2.047919,12.727437,0.127653,-0.924981,-1.422190,-0.017320,0.115886,-0.140487,8.812382,0,0.003462993,0
1786467463.817497,0.000666,0.000167,-0.000583,-0.114258,0.016846,-0.992676,0.993644,0.017690,0.111166,-0.000877,-0.999882,0.008068,0.013078,0.000254,2.054280,12.764783,0.128650,-0.924342,-1.498877,-0.017026,0.129189,-0.141337,8.813027,0,0.003464019,0
1786467463.837500,0.000666,0.001099,-0.000184,-0.113525,0.017578,-0.993652,0.993606,0.017744,0.111494,-0.000878,-0.999873,0.008159,0.013719,0.000253,2.060796,12.802640,0.129927,-0.934858,-1.572306,-0.016167,0.142864,-0.140492,8.811723,0,0.003464131,0
1786467463.857647,0.000800,0.000566,-0.000450,-0.113281,0.016113,-0.993408,0.993569,0.017798,0.111820,-0.000881,-0.999865,0.008036,0.014350,0.000255,2.067192,12.840223,0.131005,-0.920777,-1.644596,-0.015961,0.155780,-0.143723,8.811599,0,0.003470414,0
1786467463.877458,0.000800,0.000966,-0.000583,-0.113525,0.017334,-0.992920,0.993531,0.017852,0.112148,-0.000884,-0.999855,0.008108,0.014974,0.000257,2.073708,12.878015,0.132047,-0.929005,-1.716107,-0.015591,0.167833,-0.140088,8.811781,0,0.003460807,0
1786467463.897456,0.000134,0.000566,-0.000051,-0.114014,0.017334,-0.993164,0.993493,0.017904,0.112474,-0.000885,-0.999845,0.008166,0.015598,0.000255,2.079904,12.915568,0.133396,-0.935596,-1.787642,-0.014645,0.179658,-0.141623,8.811151,0,0.003461519,0
1786467463.917467,0.000666,0.000966,-0.000717,-0.113525,0.017090,-0.993408,0.993455,0.017957,0.112801,-0.000889,-0.999835,0.008173,0.016202,0.000259,2.086303,12.953367,0.134362,-0.936463,-1.856858,-0.014562,0.192312,-0.142880,8.810518,0,0.003462643,0
1786467463.937436,0.000134,0.001099,-0.000717,-0.113281,0.016846,-0.993896,0.993417,0.018008,0.113130,-0.000892,-0.999826,0.008151,0.016791,0.000264,2.092376,12.991245,0.135331,-0.933973,-1.924404,-0.014557,0.204376,-0.143371,8.809650,0,0.003461658,0
1786467463.957440,0.000400,0.000699,-0.000717,-0.114014,0.017090,-0.993408,0.993378,0.018060,0.113456,-0.000896,-0.999815,0.008167,0.017386,0.000268,2.098615,13.028892,0.136299,-0.935742,-1.992621,-0.014464,0.215280,-0.142642,8.809762,0,0.003462427,0
1786467463.977442,0.000933,-0.000233,-0.000717,-0.113525,0.017090,-0.992676,0.993341,0.018114,0.113778,-0.000900,-0.999805,0.008178,0.017977,0.000272,2.105165,13.066003,0.137252,-0.936996,-2.060313,-0.014365,0.227624,-0.142833,8.810086,0,0.003462920,0
1786467463.997442,0.000533,0.000300,-0.000317,-0.113525,0.016846,-0.993652,0.993302,0.018167,0.114102,-0.000902,-0.999795,0.008156,0.018552,0.000273,2.111518,13.103415,0.138451,-0.934524,-2.126175,-0.013908,0.239101,-0.143366,8.808699,0,0.003463238,0
1786467464.017463,0.000933,0.000699,-0.000317,-0.113281,0.017334,-0.992676,0.993264,0.018223,0.114429,-0.000904,-0.999784,0.008205,0.019114,0.000273,2.118162,13.141047,0.139676,-0.940109,-2.190584,-0.013311,0.250536,-0.142370,8.809275,0,0.003464329,0
1786467464.037460,0.000400,0.000699,-0.000051,-0.113281,0.017334,-0.992920,0.993225,0.018275,0.114755,-0.000905,-0.999773,0.008245,0.019667,0.000271,2.124538,13.178672,0.141061,-0.944727,-2.253976,-0.012449,0.261555,-0.143425,8.808598,0,0.003464135,0
1786467464.057557,0.000800,0.000300,-0.000450,-0.114258,0.017578,-0.993164,0.993187,0.018330,0.115079,-0.000907,-0.999761,0.008302,0.020228,0.000272,2.131101,13.216074,0.142210,-0.951343,-2.318297,-0.011979,0.271504,-0.143882,8.807919,0,0.003468279,0
1786467464.077467,0.000533,0.000566,-0.000184,-0.113770,0.017578,-0.993164,0.993148,0.018383,0.115405,-0.000909,-0.999749,0.008348,0.020772,0.000272,2.137559,13.253621,0.143528,-0.956626,-2.380616,-0.011253,0.282944,-0.145062,8.807462,0,0.003463397,0
1786467464.097472,0.000400,0.000167,-0.000583,-0.114258,0.017822,-0.992432,0.993109,0.018436,0.115729,-0.000912,-0.999737,0.008417,0.021319,0.000275,2.143905,13.290944,0.144611,-0.964488,-2.443312,-0.010921,0.293196,-0.145736,8.807738,0,0.003463789,0
1786467464.117455,0.000800,0.000300,-0.000850,-0.113281,0.017090,-0.993408,0.993070,0.018490,0.116053,-0.000916,-0.999726,0.008369,0.021841,0.000280,2.150383,13.328361,0.145530,-0.958975,-2.503213,-0.011193,0.304872,-0.147725,8.806290,0,0.003463156,0
1786467464.137469,0.000267,0.000433,-0.000583,-0.113525,0.016846,-0.993408,0.993031,0.018542,0.116378,-0.000920,-0.999715,0.008307,0.022358,0.000284,2.156563,13.365852,0.146606,-0.951856,-2.562378,-0.011224,0.314848,-0.147125,8.805863,0,0.003463977,0
1786467464.157471,0.000267,0.000433,-0.000317,-0.113770,0.016846,-0.993164,0.992992,0.018593,0.116703,-0.000921,-0.999704,0.008263,0.022870,0.000284,2.162778,13.403337,0.147841,-0.946830,-2.621068,-0.010916,0.324723,-0.145903,8.805680,0,0.003464107,0
1786467464.177449,0.000134,0.000966,-0.000450,-0.113037,0.017334,-0.992920,0.992953,0.018644,0.117031,-0.000924,-0.999693,0.008298,0.023362,0.000286,2.168969,13.441120,0.149030,-0.950886,-2.677488,-0.010584,0.335390,-0.144572,8.805488,0,0.003463128,0
1786467464.197460,0.000267,0.000566,-0.000583,-0.114014,0.017334,-0.993652,0.992913,0.018696,0.117356,-0.000927,-0.999681,0.008321,0.023861,0.000289,2.175200,13.478679,0.150132,-0.953539,-2.734712,-0.010418,0.344142,-0.145231,8.804295,0,0.003463867,0
1786467464.217478,0.000533,0.000566,-0.000583,-0.113525,0.016846,-0.992920,0.992874,0.018749,0.117682,-0.000930,-0.999669,0.008275,0.024347,0.000293,2.181541,13.516244,0.151228,-0.948325,-2.790427,-0.010450,0.354416,-0.146113,8.804558,0,0.003464679,0
1786467464.237461,0.000267,0.000833,-0.000850,-0.114014,0.017334,-0.993408,0.992834,0.018800,0.118009,-0.000934,-0.999657,0.008307,0.024830,0.000299,2.187741,13.553960,0.152188,-0.951985,-2.845736,-0.010580,0.363406,-0.144775,8.803627,0,0.003463815,0
1786467464.257787,0.000001,-0.000100,-0.000583,-0.113770,0.017578,-0.993896,0.992795,0.018851,0.118331,-0.000937,-0.999645,0.008365,0.025312,0.000302,2.193853,13.591132,0.153295,-0.958614,-2.901027,-0.010338,0.373290,-0.145203,8.802653,0,0.003477789,0
1786467464.277834,0.000533,0.000167,-0.000983,-0.113525,0.017334,-0.992920,0.992755,0.018904,0.118654,-0.000942,-0.999632,0.008375,0.025782,0.000309,2.200195,13.628469,0.154173,-0.959734,-2.954937,-0.010678,0.382938,-0.146464,8.803140,0,0.003476446,0
1786467464.297551,0.000134,0.000566,-0.000717,-0.114014,0.017090,-0.993164,0.992715,0.018955,0.118980,-0.000946,-0.999621,0.008353,0.026245,0.000314,2.206314,13.666033,0.155212,-0.957234,-3.008028,-0.010813,0.391590,-0.146974,8.802424,0,0.003461322,0
1786467464.317546,-0.000133,0.001365,-0.000583,-0.113281,0.017334,-0.993408,0.992675,0.019004,0.119309,-0.000949,-0.999609,0.008372,0.026686,0.000317,2.212344,13.704046,0.156361,-0.959471,-3.058509,-0.010726,0.401242,-0.146347,8.801722,0,0.003461786,0
1786467464.337521,0.000800,0.000566,-0.000583,-0.113770,0.016846,-0.993408,0.992635,0.019058,0.119635,-0.000952,-0.999597,0.008316,0.027132,0.000320,2.218843,13.741610,0.157482,-0.953056,-3.109647,-0.010828,0.409541,-0.147028,8.801253,0,0.003461307,0
1786467464.357504,0.000267,0.000833,-0.000450,-0.113525,0.016846,-0.993652,0.992594,0.019110,0.119962,-0.000955,-0.999586,0.008280,0.027566,0.000322,2.225065,13.779323,0.158693,-0.948920,-3.159402,-0.010754,0.418476,-0.146029,8.800558,0,0.003461273,0
1786467464.377474,0.000533,0.000300,-0.000450,-0.113770,0.017334,-0.994141,0.992554,0.019163,0.120286,-0.000957,-0.999573,0.008315,0.028002,0.000324,2.231486,13.816723,0.159908,-0.952957,-3.209401,-0.010441,0.426842,-0.144774,8.799611,0,0.003460673,0
1786467464.397679,0.000400,0.000833,-0.000450,-0.113525,0.017090,-0.993164,0.992513,0.019215,0.120613,-0.000960,-0.999561,0.008313,0.028425,0.000326,2.237814,13.854431,0.161134,-0.952749,-3.257870,-0.010276,0.435528,-0.145725,8.800106,0,0.003470243,0
1786467464.417534,0.000533,0.000566,-0.000450,-0.113281,0.017090,-0.993408,0.992473,0.019268,0.120938,-0.000962,-0.999549,0.008312,0.028841,0.000328,2.244222,13.891986,0.162360,-0.952588,-3.305545,-0.010105,0.444112,-0.145657,8.799392,0,0.003462579,0
1786467464.437533,0.000400,0.000566,-0.000583,-0.113525,0.017334,-0.992676,0.992432,0.019321,0.121263,-0.000965,-0.999537,0.008346,0.029254,0.000331,2.250560,13.929540,0.163516,-0.956493,-3.352996,-0.009976,0.452017,-0.145401,8.799657,0,0.003462898,0
1786467464.457512,0.000533,0.000433,-0.000717,-0.113525,0.017090,-0.992432,0.992391,0.019373,0.121588,-0.000969,-0.999525,0.008339,0.029663,0.000336,2.256930,13.967024,0.164590,-0.955740,-3.399853,-0.010134,0.460154,-0.146277,8.799417,0,0.003462307,0
1786467464.477602,0.000533,0.000034,-0.000583,-0.113770,0.017090,-0.993408,0.992350,0.019426,0.121911,-0.000972,-0.999513,0.008333,0.030071,0.000339,2.263315,14.004276,0.165736,-0.955037,-3.446657,-0.010138,0.467996,-0.146142,8.797966,0,0.003466582,0
1786467464.497527,0.000134,0.000433,-0.000450,-0.113525,0.016846,-0.993652,0.992310,0.019477,0.122236,-0.000975,-0.999501,0.008300,0.030466,0.000341,2.269473,14.041758,0.166969,-0.951294,-3.491895,-0.010113,0.476161,-0.146338,8.797249,0,0.003462761,0
1786467464.517871,0.000400,0.000167,-0.000583,-0.113281,0.016846,-0.993652,0.992269,0.019529,0.122559,-0.000978,-0.999490,0.008276,0.030856,0.000345,2.275768,14.079090,0.168122,-0.948462,-3.536569,-0.010224,0.484189,-0.145635,8.796788,0,0.003477797,0
1786467464.537649,0.000400,0.000300,-0.000983,-0.114258,0.017822,-0.992920,0.992227,0.019582,0.122883,-0.000983,-0.999476,0.008387,0.031251,0.000352,2.282096,14.116491,0.169069,-0.961187,-3.581945,-0.010273,0.490823,-0.144165,8.797062,0,0.003464929,0
1786467464.557555,0.000267,0.000833,-0.000317,-0.113770,0.017090,-0.993164,0.992186,0.019633,0.123210,-0.000985,-0.999465,0.008374,0.031628,0.000352,2.288379,14.154194,0.170408,-0.959763,-3.625126,-0.010042,0.498959,-0.147096,8.796305,0,0.003460707,0
1786467464.577512,0.000400,0.001099,-0.000317,-0.113525,0.017578,-0.992920,0.992144,0.019686,0.123537,-0.000986,-0.999452,0.008429,0.031995,0.000353,2.294798,14.192040,0.171772,-0.966142,-3.667229,-0.009574,0.506530,-0.146331,8.796093,0,0.003459727,0
1786467464.597524,0.000267,0.000566,-0.000450,-0.113770,0.016357,-0.992676,0.992103,0.019737,0.123863,-0.000989,-0.999442,0.008312,0.032362,0.000355,2.300986,14.229604,0.173017,-0.952705,-3.709318,-0.009898,0.513584,-0.148658,8.795853,0,0.003461324,0
1786467464.617594,0.001066,0.000566,-0.000717,-0.113525,0.016846,-0.993164,0.992061,0.019792,0.124188,-0.000993,-0.999430,0.008285,0.032723,0.000360,2.307651,14.267166,0.174122,-0.949541,-3.750623,-0.010182,0.521020,-0.145706,8.794943,0,0.003464977,0
1786467464.637529,0.000267,0.001099,0.000082,-0.113281,0.017090,-0.992676,0.992019,0.019844,0.124516,-0.000993,-0.999418,0.008305,0.033071,0.000357,2.314011,14.305010,0.175724,-0.951866,-3.790537,-0.009421,0.528215,-0.145081,8.794984,0,0.003461997,0
1786467464.657527,0.000400,0.000833,-0.000583,-0.114014,0.016602,-0.993408,0.991977,0.019896,0.124843,-0.000996,-0.999407,0.008253,0.033422,0.000360,2.320287,14.342725,0.176915,-0.945895,-3.830817,-0.009686,0.534356,-0.145924,8.793793,0,0.003462444,0
1786467464.677525,0.000267,0.000433,-0.000450,-0.114014,0.016602,-0.992920,0.991935,0.019947,0.125167,-0.000999,-0.999396,0.008217,0.033773,0.000363,2.326505,14.380208,0.178180,-0.941858,-3.871043,-0.009741,0.541315,-0.144924,8.793834,0,0.003462752,0
1786467464.697498,0.000267,0.000566,-0.000583,-0.113281,0.016357,-0.992920,0.991892,0.019998,0.125493,-0.001002,-0.999385,0.008161,0.034109,0.000366,2.332693,14.417773,0.179370,-0.935431,-3.909607,-0.010052,0.548894,-0.144469,8.793385,0,0.003461939,0
1786467464.717729,0.000400,0.000300,-0.000850,-0.113037,0.017090,-0.993408,0.991850,0.020050,0.125816,-0.001006,-0.999373,0.008215,0.034442,0.000372,2.338999,14.455179,0.180420,-0.941627,-3.947810,-0.010245,0.555778,-0.142601,8.792464,0,0.003472296,0
1786467464.737558,0.000933,0.000833,-0.000583,-0.113281,0.016602,-0.993164,0.991808,0.020104,0.126143,-0.001010,-0.999362,0.008188,0.034767,0.000376,2.345600,14.492892,0.181632,-0.938506,-3.984981,-0.010429,0.561956,-0.144042,8.792251,0,0.003462995,0
1786467464.757727,0.000800,0.000566,-0.000450,-0.113770,0.016357,-0.992920,0.991765,0.020158,0.126468,-0.001013,-0.999351,0.008138,0.035094,0.000378,2.352111,14.530454,0.182913,-0.932726,-4.022486,-0.010565,0.567866,-0.143771,8.792060,0,0.003470507,0
1786467464.777597,0.000134,0.000433,-0.000317,-0.114014,0.016846,-0.993164,0.991723,0.020209,0.126793,-0.001014,-0.999339,0.008170,0.035420,0.000379,2.358310,14.567928,0.184285,-0.936414,-4.059948,-0.010237,0.574055,-0.142422,8.791380,0,0.003463366,0
1786467464.797666,0.000267,0.000433,-0.000317,-0.114258,0.016602,-0.993408,0.991680,0.020260,0.127117,-0.001016,-0.999328,0.008160,0.035744,0.000380,2.364557,14.605406,0.185654,-0.935327,-4.097041,-0.010080,0.580208,-0.143262,8.790674,0,0.003466479,0
1786467464.817510,0.000533,0.000300,-0.000717,-0.113281,0.017090,-0.993408,0.991638,0.020313,0.127441,-0.001020,-0.999316,0.008217,0.036055,0.000384,2.370965,14.642808,0.186804,-0.941865,-4.132701,-0.010106,0.587548,-0.142524,8.790224,0,0.003459232,0
1786467464.837533,0.000933,0.000833,-0.000583,-0.113770,0.017578,-0.993408,0.991594,0.020368,0.127768,-0.001023,-0.999304,0.008320,0.036362,0.000388,2.377670,14.680503,0.188063,-0.953677,-4.167899,-0.009780,0.593044,-0.143068,8.789777,0,0.003461408,0
1786467464.857524,0.000533,0.000566,-0.000184,-0.114014,0.017090,-0.993652,0.991551,0.020421,0.128093,-0.001025,-0.999293,0.008334,0.036667,0.000387,2.384153,14.718045,0.189541,-0.955346,-4.202942,-0.009379,0.598861,-0.145650,8.789058,0,0.003461724,0
1786467464.877474,0.000267,0.001099,-0.000184,-0.114014,0.016846,-0.993652,0.991508,0.020472,0.128420,-0.001026,-0.999282,0.008315,0.036963,0.000387,2.390464,14.755895,0.191031,-0.953208,-4.236788,-0.009146,0.604742,-0.146224,8.788622,0,0.003460140,0
1786467464.897495,0.000666,0.000833,-0.000450,-0.113525,0.017578,-0.992676,0.991465,0.020526,0.128747,-0.001028,-0.999270,0.008398,0.037254,0.000390,2.397047,14.793586,0.192383,-0.962705,-4.270212,-0.008776,0.611062,-0.145037,8.789176,0,0.003462025,0
1786467464.917500,0.000400,0.000566,-0.000717,-0.114014,0.016357,-0.993408,0.991421,0.020578,0.129072,-0.001032,-0.999260,0.008299,0.037545,0.000395,2.403304,14.831151,0.193541,-0.951337,-4.303560,-0.009496,0.616333,-0.147920,8.787988,0,0.003462772,0
1786467464.937505,0.001066,0.000833,-0.000184,-0.113281,0.017334,-0.992920,0.991377,0.020634,0.129398,-0.001034,-0.999249,0.008353,0.037825,0.000394,2.410140,14.868839,0.195054,-0.957485,-4.335634,-0.008941,0.622706,-0.144873,8.788088,0,0.003463298,0
1786467464.957578,0.000267,0.001099,-0.000583,-0.113525,0.016846,-0.992920,0.991334,0.020685,0.129726,-0.001037,-0.999239,0.008334,0.038099,0.000398,2.416407,14.906696,0.196328,-0.955328,-4.367071,-0.009202,0.627886,-0.146554,8.787658,0,0.003466624,0
1786467464.977515,0.000933,0.001232,-0.000317,-0.113281,0.016602,-0.993408,0.991289,0.020740,0.130054,-0.001039,-0.999229,0.008283,0.038364,0.000399,2.423079,14.944627,0.197762,-0.949529,-4.397494,-0.009279,0.633472,-0.146298,8.786772,0,0.003463283,0
1786467464.997484,0.000267,0.000966,-0.000184,-0.113525,0.017090,-0.993408,0.991245,0.020792,0.130381,-0.001040,-0.999219,0.008315,0.038632,0.000399,2.429436,14.982394,0.199285,-0.953237,-4.428173,-0.008867,0.638473,-0.144945,8.786384,0,0.003462180,0
1786467465.017546,0.000800,0.000966,-0.000983,-0.114014,0.016846,-0.992676,0.991201,0.020845,0.130708,-0.001045,-0.999209,0.008304,0.038900,0.000406,2.435945,15.020184,0.200331,-0.951954,-4.458991,-0.009537,0.643224,-0.145698,8.786704,0,0.003465283,0
1786467465.037533,0.000800,0.000034,-0.000184,-0.114014,0.016846,-0.992920,0.991158,0.020899,0.131030,-0.001047,-0.999198,0.008297,0.039174,0.000406,2.442574,15.057421,0.201831,-0.951094,-4.490360,-0.009262,0.648664,-0.145485,8.786041,0,0.003464429,0
1786467465.057531,0.000267,0.000966,-0.000450,-0.113770,0.017090,-0.992676,0.991113,0.020951,0.131357,-0.001049,-0.999187,0.008328,0.039432,0.000408,2.448893,15.095194,0.203209,-0.954741,-4.520035,-0.009164,0.654082,-0.145187,8.785881,0,0.003464262,0
1786467465.077519,0.000267,0.000300,-0.000317,-0.114258,0.016846,-0.993408,0.991069,0.021002,0.131681,-0.001051,-0.999177,0.008318,0.039697,0.000410,2.455199,15.132586,0.204645,-0.953575,-4.550386,-0.009092,0.658788,-0.146049,8.784729,0,0.003463728,0
1786467465.097514,0.000533,0.001099,-0.000184,-0.113770,0.016846,-0.993408,0.991024,0.021055,0.132008,-0.001052,-0.999167,0.008310,0.039945,0.000409,2.461693,15.170431,0.206187,-0.952650,-4.578843,-0.008875,0.664300,-0.145793,8.784335,0,0.003463595,0
1786467465.117596,0.000400,0.000699,-0.000184,-0.113525,0.016602,-0.992920,0.990980,0.021107,0.132334,-0.001054,-0.999158,0.008275,0.040191,0.000409,2.468089,15.208051,0.207718,-0.948629,-4.607077,-0.008792,0.669479,-0.145899,8.784431,0,0.003467243,0
1786467465.137552,0.000400,0.001232,-0.000450,-0.114258,0.017090,-0.993408,0.990935,0.021159,0.132662,-0.001056,-0.999147,0.008311,0.040436,0.000412,2.474488,15.245975,0.209119,-0.952864,-4.635172,-0.008684,0.673463,-0.144714,8.783576,0,0.003464600,0
1786467465.157579,0.000267,0.000300,-0.000450,-0.114014,0.016846,-0.992920,0.990890,0.021211,0.132986,-0.001058,-0.999137,0.008309,0.040684,0.000415,2.480785,15.283369,0.210495,-0.952632,-4.663615,-0.008755,0.678683,-0.145700,8.783650,0,0.003465622,0
1786467465.177496,0.000933,0.000833,-0.000184,-0.113281,0.017822,-0.993652,0.990845,0.021266,0.133312,-0.001060,-0.999127,0.008431,0.040918,0.000414,2.487622,15.321044,0.212077,-0.966637,-4.690379,-0.007933,0.684165,-0.144553,8.782534,0,0.003461715,0
1786467465.197524,0.000400,0.000699,-0.000583,-0.113770,0.016602,-0.992920,0.990800,0.021318,0.133637,-0.001063,-0.999118,0.008366,0.041151,0.000418,2.493962,15.358673,0.213389,-0.959109,-4.717156,-0.008471,0.688271,-0.148253,8.782849,0,0.003463462,0
1786467465.217499,0.000666,0.001099,-0.000450,-0.113281,0.016846,-0.992920,0.990755,0.021372,0.133965,-0.001066,-0.999109,0.008349,0.041374,0.000421,2.500513,15.396522,0.214802,-0.957193,-4.742647,-0.008633,0.693250,-0.146669,8.782502,0,0.003462569,0
1786467465.237522,0.001066,0.000566,-0.000450,-0.113770,0.016846,-0.992432,0.990710,0.021427,0.134289,-0.001069,-0.999099,0.008335,0.041603,0.000423,2.507284,15.434066,0.216205,-0.955558,-4.768963,-0.008753,0.697215,-0.146257,8.782629,0,0.003463949,0
1786467465.257529,0.000533,0.000433,-0.000717,-0.113770,0.016846,-0.992676,0.990665,0.021479,0.134613,-0.001073,-0.999090,0.008328,0.041830,0.000428,2.513709,15.471541,0.217451,-0.954800,-4.795016,-0.009168,0.701732,-0.146072,8.782012,0,0.003464259,0
1786467465.277554,0.000134,0.000167,-0.000450,-0.113770,0.017334,-0.993164,0.990620,0.021531,0.134936,-0.001075,-0.999080,0.008390,0.042057,0.000431,2.519997,15.508848,0.218866,-0.961913,-4.821043,-0.008966,0.706229,-0.145530,8.781148,0,0.003465295,0
1786467465.297528,0.000267,0.000966,-0.000450,-0.113037,0.017334,-0.993164,0.990574,0.021582,0.135263,-0.001077,-0.999071,0.008436,0.042266,0.000434,2.526381,15.546611,0.220309,-0.967196,-4.844967,-0.008862,0.711246,-0.146712,8.780768,0,0.003463880,0
1786467465.317502,0.000800,0.000167,-0.000450,-0.114014,0.017090,-0.993408,0.990529,0.021637,0.135586,-0.001080,-0.999061,0.008433,0.042487,0.000436,2.533026,15.583922,0.221725,-0.966800,-4.870359,-0.008947,0.714507,-0.147747,8.780152,0,0.003462819,0
1786467465.337524,0.000400,0.000833,-0.000450,-0.113525,0.017334,-0.993408,0.990483,0.021689,0.135912,-0.001083,-0.999052,0.008466,0.042694,0.000439,2.539483,15.621609,0.223172,-0.970662,-4.894167,-0.008895,0.719197,-0.147507,8.779795,0,0.003464102,0
1786467465.357535,-0.000133,0.000566,-0.000583,-0.113281,0.017090,-0.993408,0.990437,0.021739,0.136236,-0.001085,-0.999043,0.008464,0.042899,0.000444,2.545592,15.659150,0.224532,-0.970357,-4.917586,-0.009203,0.723555,-0.148506,8.779431,0,0.003464569,0
1786467465.377496,0.000134,0.000433,-0.000717,-0.113525,0.017334,-0.993164,0.990392,0.021790,0.136560,-0.001089,-0.999034,0.008492,0.043104,0.000449,2.551854,15.696615,0.225819,-0.973664,-4.941159,-0.009488,0.727333,-0.148150,8.779332,0,0.003462783,0
1786467465.397589,0.000800,0.000699,-0.000184,-0.113281,0.017090,-0.993652,0.990345,0.021844,0.136885,-0.001090,-0.999026,0.008477,0.043301,0.000449,2.558567,15.734221,0.227429,-0.971861,-4.963689,-0.009369,0.731543,-0.148830,8.778494,0,0.003467082,0
1786467465.417509,0.000267,0.000966,-0.000317,-0.113037,0.017090,-0.992676,0.990299,0.021896,0.137212,-0.001092,-0.999018,0.008472,0.043490,0.000450,2.564961,15.771983,0.228973,-0.971314,-4.985452,-0.009384,0.735581,-0.148620,8.779145,0,0.003462914,0
1786467465.437501,0.000533,0.001232,-0.000184,-0.113770,0.016602,-0.993164,0.990252,0.021949,0.137540,-0.001093,-0.999010,0.008401,0.043680,0.000451,2.571474,15.809902,0.230591,-0.963153,-5.007174,-0.009569,0.738507,-0.148959,8.778341,0,0.003462873,0
1786467465.457736,0.000533,0.001099,-0.000450,-0.113281,0.017090,-0.993164,0.990206,0.022001,0.137867,-0.001096,-0.999002,0.008414,0.043865,0.000453,2.578001,15.847743,0.232068,-0.964637,-5.028390,-0.009652,0.742725,-0.147068,8.778039,0,0.003473221,0
1786467465.477803,0.000533,0.000699,-0.000317,-0.113525,0.016357,-0.993408,0.990159,0.022054,0.138192,-0.001098,-0.998994,0.008326,0.044051,0.000455,2.584473,15.885363,0.233597,-0.954636,-5.049789,-0.010079,0.746179,-0.148051,8.777466,0,0.003473798,0
1786467465.500680,0.000267,0.000566,-0.000583,-0.114014,0.016846,-0.992676,0.990113,0.022105,0.138517,-0.001101,-0.998986,0.008330,0.044245,0.000460,2.590791,15.922906,0.234979,-0.955009,-5.072062,-0.010447,0.749352,-0.145891,8.777903,0,0.003595136,0
1786467465.518057,-0.000133,0.000699,-0.000184,-0.114014,0.017090,-0.992920,0.990066,0.022155,0.138842,-0.001102,-0.998977,0.008367,0.044433,0.000460,2.596973,15.960511,0.236614,-0.959338,-5.093631,-0.010091,0.753157,-0.145796,8.777320,0,0.003449998,0
1786467465.537687,0.000533,0.000966,-0.000583,-0.113037,0.017334,-0.993408,0.990019,0.022208,0.139169,-0.001105,-0.998969,0.008423,0.044606,0.000464,2.603514,15.998274,0.238034,-0.965701,-5.113447,-0.010109,0.757747,-0.146152,8.776500,0,0.003437725,0
1786467465.557974,0.000001,0.000833,-0.000317,-0.113525,0.017578,-0.993652,0.989972,0.022259,0.139494,-0.001106,-0.998961,0.008499,0.044782,0.000466,2.609811,16.035950,0.239618,-0.974450,-5.133638,-0.009751,0.760657,-0.147094,8.775933,0,0.003456423,0
1786467465.577974,0.000533,0.000566,-0.000450,-0.113525,0.016846,-0.993652,0.989925,0.022311,0.139819,-0.001109,-0.998953,0.008455,0.044956,0.000469,2.616320,16.073488,0.241100,-0.969432,-5.153629,-0.010131,0.764155,-0.149207,8.775596,0,0.003458302,0
1786467465.597849,0.000400,0.000833,-0.000450,-0.112793,0.016846,-0.993896,0.989878,0.022364,0.140145,-0.001111,-0.998946,0.008425,0.045119,0.000472,2.622768,16.111178,0.242597,-0.965966,-5.172264,-0.010466,0.768246,-0.148373,8.775063,0,0.003454416,0
1786467465.617800,0.000267,0.000167,-0.000317,-0.114258,0.017578,-0.993652,0.989831,0.022415,0.140467,-0.001113,-0.998937,0.008499,0.045300,0.000473,2.629209,16.148472,0.244174,-0.974463,-5.193093,-0.010083,0.770087,-0.147073,8.775018,0,0.003454700,0
1786467465.637919,0.000666,0.000566,-0.000317,-0.113525,0.016846,-0.993164,0.989784,0.022469,0.140792,-0.001115,-0.998930,0.008457,0.045468,0.000475,2.635823,16.186006,0.245749,-0.969605,-5.212264,-0.010311,0.774292,-0.149169,8.775168,0,0.003462114,0
1786467465.657755,0.000400,0.000699,-0.000583,-0.113037,0.017090,-0.993164,0.989736,0.022521,0.141117,-0.001118,-0.998923,0.008461,0.045627,0.000479,2.642276,16.223618,0.247183,-0.970056,-5.230582,-0.010623,0.778026,-0.148141,8.774886,0,0.003455609,0
1786467465.678018,0.000933,0.001099,-0.000583,-0.113770,0.016846,-0.993164,0.989688,0.022576,0.141444,-0.001122,-0.998916,0.008427,0.045787,0.000483,2.649004,16.261463,0.248623,-0.966168,-5.248873,-0.011119,0.780336,-0.148350,8.774609,0,0.003468904,0
1786467465.697795,0.000533,0.000833,-0.000051,-0.113770,0.017090,-0.993164,0.989640,0.022629,0.141769,-0.001123,-0.998908,0.008438,0.045947,0.000482,2.655617,16.299137,0.250385,-0.967443,-5.267256,-0.010780,0.783509,-0.147529,8.774328,0,0.003458198,0
1786467465.717761,0.000400,0.000566,-0.000450,-0.113770,0.016357,-0.994141,0.989593,0.022680,0.142094,-0.001125,-0.998902,0.008349,0.046105,0.000485,2.662015,16.336680,0.251885,-0.957228,-5.285359,-0.011438,0.786695,-0.148492,8.773054,0,0.003458193,0
1786467465.737760,0.000533,0.000699,-0.000583,-0.113281,0.016846,-0.993896,0.989545,0.022733,0.142419,-0.001128,-0.998895,0.008348,0.046256,0.000489,2.668527,16.374295,0.253330,-0.957139,-5.302749,-0.011787,0.790244,-0.146229,8.773045,0,0.003459601,0
1786467465.758021,0.000134,0.000833,-0.000450,-0.113770,0.017090,-0.993652,0.989497,0.022784,0.142745,-0.001131,-0.998887,0.008383,0.046409,0.000492,2.674851,16.411979,0.254868,-0.961138,-5.320325,-0.011818,0.792692,-0.146045,8.773016,0,0.003471853,0
1786467465.778080,0.000533,0.000167,-0.000317,-0.112793,0.017090,-0.993408,0.989449,0.022837,0.143067,-0.001133,-0.998880,0.008408,0.046559,0.000494,2.681439,16.449277,0.256475,-0.964008,-5.337437,-0.011728,0.796796,-0.146646,8.772960,0,0.003472462,0
1786467465.797718,0.000533,0.000699,-0.000450,-0.113525,0.017090,-0.993408,0.989401,0.022890,0.143392,-0.001135,-0.998873,0.008426,0.046706,0.000497,2.688000,16.486883,0.258019,-0.966038,-5.354388,-0.011821,0.798880,-0.147131,8.772689,0,0.003454969,0
1786467465.817696,0.000400,0.000167,-0.000317,-0.113525,0.016602,-0.993652,0.989353,0.022942,0.143714,-0.001137,-0.998866,0.008376,0.046856,0.000498,2.694458,16.524189,0.259619,-0.960268,-5.371515,-0.012138,0.801871,-0.147987,8.772159,0,0.003456298,0
1786467465.837700,0.000800,0.000833,-0.000717,-0.113525,0.016602,-0.992676,0.989304,0.022995,0.144040,-0.001141,-0.998860,0.008338,0.046997,0.000504,2.701085,16.561885,0.261004,-0.955925,-5.387790,-0.012839,0.804662,-0.146914,8.772891,0,0.003458382,0
1786467465.857694,0.000800,0.000833,-0.000450,-0.114014,0.016846,-0.992676,0.989255,0.023049,0.144365,-0.001144,-0.998853,0.008342,0.047142,0.000507,2.707776,16.599571,0.262558,-0.956410,-5.404387,-0.013003,0.806947,-0.145930,8.772642,0,0.003459546,0
1786467465.877907,0.000533,0.000566,-0.000317,-0.113037,0.017334,-0.992920,0.989207,0.023103,0.144690,-0.001146,-0.998846,0.008413,0.047280,0.000509,2.714400,16.637092,0.264206,-0.964521,-5.420170,-0.012685,0.810803,-0.145573,8.772124,0,0.003469720,0
1786467465.897720,0.000400,0.000966,-0.000317,-0.113525,0.017334,-0.992920,0.989158,0.023155,0.145016,-0.001148,-0.998839,0.008465,0.047415,0.000510,2.720946,16.674841,0.265868,-0.970557,-5.435711,-0.012467,0.812930,-0.146979,8.771853,0,0.003460385,0
1786467465.917724,0.000666,0.000300,-0.000051,-0.114014,0.016357,-0.993652,0.989109,0.023208,0.145339,-0.001149,-0.998833,0.008372,0.047556,0.000509,2.727586,16.712218,0.267645,-0.959832,-5.451890,-0.012717,0.815217,-0.148932,8.770840,0,0.003461464,0
1786467465.937700,0.000267,0.000566,0.000216,-0.113525,0.017334,-0.993652,0.989060,0.023261,0.145663,-0.001148,-0.998826,0.008435,0.047691,0.000506,2.734150,16.749723,0.269624,-0.967168,-5.467325,-0.011840,0.818411,-0.146206,8.770612,0,0.003461102,0
1786467465.957884,0.000267,0.000699,-0.000717,-0.113770,0.016846,-0.993164,0.989011,0.023312,0.145988,-0.001151,-0.998820,0.008419,0.047823,0.000512,2.740506,16.787338,0.271039,-0.965227,-5.482551,-0.012481,0.820773,-0.147923,8.770830,0,0.003469674,0
1786467465.977704,0.000400,0.000433,-0.000184,-0.113770,0.017578,-0.993652,0.988962,0.023365,0.146311,-0.001153,-0.998813,0.008501,0.047958,0.000512,2.747100,16.824774,0.272790,-0.974723,-5.497970,-0.011945,0.823420,-0.146840,8.770094,0,0.003460632,0
1786467465.997701,0.000533,0.000966,-0.000450,-0.113770,0.016602,-0.993164,0.988912,0.023417,0.146637,-0.001155,-0.998808,0.008434,0.048083,0.000515,2.753639,16.862537,0.274375,-0.966972,-5.512331,-0.012551,0.825945,-0.149399,8.770313,0,0.003461329,0
1786467466.017704,0.000933,0.000966,-0.000317,-0.113525,0.016846,-0.992920,0.988863,0.023472,0.146963,-0.001157,-0.998802,0.008415,0.048205,0.000517,2.760459,16.900292,0.276053,-0.964768,-5.526360,-0.012723,0.828636,-0.147755,8.770345,0,0.003462172,0
1786467466.037742,0.000533,0.000833,-0.000450,-0.113525,0.016602,-0.993652,0.988813,0.023524,0.147289,-0.001160,-0.998796,0.008370,0.048326,0.000520,2.767005,16.937977,0.277644,-0.959648,-5.540198,-0.013214,0.831053,-0.147695,8.769384,0,0.003464245,0
1786467466.057741,0.000400,0.000566,-0.000717,-0.113525,0.017090,-0.993408,0.988764,0.023576,0.147613,-0.001164,-0.998790,0.008403,0.048449,0.000526,2.773476,16.975510,0.279088,-0.963451,-5.554308,-0.013580,0.833464,-0.146351,8.769409,0,0.003464178,0
1786467466.077734,0.000267,0.001232,-0.000450,-0.114258,0.017090,-0.992676,0.988713,0.023628,0.147940,-0.001166,-0.998784,0.008430,0.048570,0.000529,2.779914,17.013417,0.280711,-0.966479,-5.568238,-0.013688,0.835006,-0.147026,8.769909,0,0.003463841,0
1786467466.097710,0.000267,0.000833,-0.000717,-0.113281,0.017090,-0.993408,0.988663,0.023679,0.148265,-0.001170,-0.998778,0.008449,0.048685,0.000535,2.786319,17.051101,0.282172,-0.968696,-5.581360,-0.014150,0.838435,-0.147533,8.768929,0,0.003462916,0
1786467466.117681,0.000533,0.000966,-0.000184,-0.114014,0.016602,-0.992920,0.988613,0.023732,0.148591,-0.001171,-0.998773,0.008398,0.048801,0.000535,2.792916,17.088854,0.283944,-0.962801,-5.594765,-0.014378,0.839911,-0.148354,8.769197,0,0.003461961,0
1786467466.137676,0.000666,0.001099,-0.000317,-0.113525,0.016846,-0.992920,0.988563,0.023785,0.148918,-0.001173,-0.998768,0.008392,0.048912,0.000537,2.799600,17.126683,0.285654,-0.962142,-5.607432,-0.014510,0.842658,-0.147073,8.768993,0,0.003462250,0
1786467466.157773,0.001199,0.000566,-0.000317,-0.113525,0.016602,-0.993408,0.988513,0.023841,0.149242,-0.001176,-0.998762,0.008351,0.049025,0.000539,2.806565,17.164210,0.287347,-0.957431,-5.620405,-0.014805,0.844919,-0.147096,8.768287,0,0.003466877,0
1786467466.178087,0.000267,0.000566,-0.000051,-0.113770,0.016846,-0.993164,0.988462,0.023893,0.149566,-0.001176,-0.998757,0.008361,0.049139,0.000538,2.813065,17.201726,0.289210,-0.958528,-5.633537,-0.014561,0.846884,-0.146233,8.768324,0,0.003479597,0
1786467466.197712,0.000400,0.000300,-0.000450,-0.113525,0.017334,-0.993896,0.988412,0.023945,0.149889,-0.001179,-0.998751,0.008430,0.049253,0.000541,2.819621,17.239093,0.290845,-0.966470,-5.646560,-0.014422,0.849421,-0.145897,8.767363,0,0.003459742,0
1786467466.217692,0.000666,0.000833,-0.000184,-0.113770,0.016846,-0.993896,0.988362,0.023999,0.150214,-0.001180,-0.998745,0.008415,0.049360,0.000542,2.826335,17.276764,0.292645,-0.964720,-5.658856,-0.014460,0.851291,-0.147686,8.767133,0,0.003459985,0
1786467466.237717,0.000400,0.000433,-0.000717,-0.114014,0.017090,-0.993408,0.988311,0.024051,0.150537,-0.001184,-0.998740,0.008438,0.049473,0.000547,2.832820,17.314218,0.294125,-0.967416,-5.671791,-0.014893,0.853221,-0.147182,8.767410,0,0.003462086,0
1786467466.257725,0.000533,0.001232,-0.000184,-0.113770,0.017090,-0.993652,0.988260,0.024104,0.150864,-0.001185,-0.998735,0.008455,0.049573,0.000548,2.839489,17.352114,0.295954,-0.969340,-5.683348,-0.014768,0.855512,-0.147622,8.766956,0,0.003462918,0
1786467466.277699,0.000001,0.000833,-0.000317,-0.113525,0.016357,-0.993164,0.988209,0.024153,0.151189,-0.001187,-0.998730,0.008376,0.049673,0.000550,2.845764,17.389794,0.297677,-0.960307,-5.694815,-0.015370,0.857803,-0.148780,8.767233,0,0.003462078,0
1786467466.297966,0.000533,0.000833,-0.000717,-0.113525,0.017334,-0.992920,0.988158,0.024206,0.151515,-0.001191,-0.998725,0.008444,0.049775,0.000556,2.852366,17.427472,0.299192,-0.968045,-5.706437,-0.015575,0.859756,-0.146148,8.767311,0,0.003473945,0
1786467466.317759,0.000400,0.000566,-0.000051,-0.113281,0.016602,-0.993408,0.988107,0.024258,0.151838,-0.001191,-0.998720,0.008398,0.049872,0.000556,2.858946,17.464988,0.301084,-0.962777,-5.717668,-0.015667,0.862033,-0.148237,8.766596,0,0.003462716,0
1786467466.337778,0.000533,0.000433,-0.000583,-0.113525,0.017334,-0.993408,0.988056,0.024311,0.152162,-0.001194,-0.998715,0.008459,0.049974,0.000560,2.865574,17.502433,0.302677,-0.969810,-5.729327,-0.015741,0.863729,-0.146566,8.766418,0,0.003463885,0
1786467466.357780,0.000400,0.001099,-0.000317,-0.113281,0.016846,-0.993164,0.988004,0.024363,0.152488,-0.001196,-0.998710,0.008442,0.050064,0.000562,2.872140,17.540257,0.304442,-0.967857,-5.739696,-0.015987,0.865829,-0.148281,8.766456,0,0.003463996,0
1786467466.377865,0.000533,0.000433,-0.000583,-0.113525,0.017578,-0.993164,0.987953,0.024417,0.152811,-0.001199,-0.998704,0.008525,0.050164,0.000567,2.878795,17.577697,0.306051,-0.977362,-5.751100,-0.015942,0.867481,-0.147181,8.766271,0,0.003467655,0
1786467466.397692,0.000933,0.000433,-0.000583,-0.114258,0.017090,-0.993408,0.987902,0.024471,0.153134,-0.001203,-0.998699,0.008518,0.050266,0.000571,2.885626,17.615144,0.307648,-0.976490,-5.762833,-0.016378,0.868693,-0.149209,8.765806,0,0.003459417,0
1786467466.417738,0.000800,0.000699,-0.000450,-0.113281,0.017334,-0.993652,0.987850,0.024526,0.153458,-0.001206,-0.998695,0.008546,0.050356,0.000574,2.892447,17.652736,0.309350,-0.979778,-5.773194,-0.016489,0.871615,-0.148839,8.765368,0,0.003462516,0
1786467466.437742,0.000267,0.000300,-0.000450,-0.113770,0.017334,-0.993408,0.987799,0.024577,0.153781,-0.001208,-0.998689,0.008572,0.050453,0.000578,2.898955,17.690098,0.311042,-0.982662,-5.784328,-0.016636,0.872970,-0.149500,8.765414,0,0.003463073,0
1786467466.457773,0.000533,0.000300,-0.000850,-0.113770,0.017090,-0.993164,0.987747,0.024630,0.154103,-0.001213,-0.998685,0.008557,0.050548,0.000585,2.905522,17.727475,0.312492,-0.980921,-5.795258,-0.017462,0.874868,-0.150173,8.765459,0,0.003464656,0
