timestamp,gx,gy,gz,ax,ay,az,madgwick_qw,madgwick_qx,madgwick_qy,madgwick_qz,kalman_qw,kalman_qx,kalman_qy,kalman_qz,madgwick_roll_deg,madgwick_pitch_deg,madgwick_yaw_deg,kalman_roll_deg,kalman_pitch_deg,kalman_yaw_deg,robot_accel_x,robot_accel_y,robot_accel_z,kalman_converged,kalman_P_change,convergence_counter
1786125679.506123,0.000747,0.000425,-0.001583,0.017578,0.004639,-0.998291,1.000000,0.000088,-0.000317,-0.000008,0.999997,0.002321,0.000085,-0.000008,0.010076,-0.036320,-0.000910,0.266007,0.009707,-0.000876,0.017538,0.004712,8.811710,0,0.087903733,0
1786125679.521810,0.000880,0.001224,-0.001849,0.018066,0.005127,-0.997803,1.000000,0.000182,-0.000628,-0.000017,0.999984,0.005636,0.000150,-0.000022,0.020896,-0.072001,-0.001979,0.645876,0.017220,-0.002446,0.016217,0.050807,8.812092,0,0.030633142,0
1786125679.542282,0.000747,0.000558,-0.001849,0.017090,0.005371,-0.998047,1.000000,0.000285,-0.000941,-0.000026,0.999950,0.010027,0.000181,-0.000041,0.032608,-0.107773,-0.003057,1.149037,0.020788,-0.004479,0.014027,0.116103,8.811328,0,0.016647738,0
1786125679.562077,0.000348,0.000558,-0.001317,0.018066,0.005127,-0.997803,0.999999,0.000377,-0.001255,-0.000033,0.999879,0.015564,0.000181,-0.000054,0.043191,-0.143815,-0.003834,1.783541,0.020784,-0.005827,0.014395,0.201915,8.810223,0,0.010980118,0
1786125679.581889,0.000614,0.000957,-0.001583,0.018066,0.004883,-0.997314,0.999999,0.000467,-0.001569,-0.000041,0.999747,0.022507,0.000130,-0.000069,0.053535,-0.179738,-0.004769,2.579307,0.015032,-0.007565,0.014314,0.310325,8.807929,0,0.008160033,0
1786125679.602122,0.000348,0.000691,-0.001716,0.018066,0.005371,-0.997803,0.999998,0.000563,-0.001881,-0.000049,0.999509,0.031321,-0.000011,-0.000086,0.064516,-0.215588,-0.005789,3.589723,-0.000917,-0.009872,0.015342,0.446911,8.802255,0,0.006589882,0
1786125679.621855,0.001013,0.000025,-0.001583,0.017334,0.005859,-0.998047,0.999997,0.000672,-0.002195,-0.000057,0.999098,0.042451,-0.000304,-0.000101,0.076986,-0.251470,-0.006744,4.866032,-0.034316,-0.013058,0.017468,0.620274,8.792694,0,0.005599492,0
1786125679.642061,0.000348,0.001090,-0.001583,0.017822,0.005371,-0.998047,0.999997,0.000769,-0.002505,-0.000065,0.998413,0.056311,-0.000824,-0.000116,0.088132,-0.287042,-0.007702,6.456143,-0.093525,-0.018615,0.023458,0.837585,8.776588,0,0.004981000,0
1786125679.661824,0.000348,0.000691,-0.001849,0.017822,0.005371,-0.998291,0.999996,0.000866,-0.002817,-0.000075,0.997285,0.073614,-0.001731,-0.000134,0.099288,-0.322838,-0.008819,8.443240,-0.196655,-0.029861,0.033664,1.108499,8.749476,0,0.004541782,0
1786125679.681758,0.000348,0.001090,-0.001849,0.017334,0.004883,-0.998047,0.999995,0.000959,-0.003129,-0.000084,0.995460,0.095122,-0.003249,-0.000150,0.109959,-0.358550,-0.009940,10.916947,-0.369008,-0.052574,0.050743,1.445341,8.705564,0,0.004245033,0
1786125679.701830,0.001147,0.001090,-0.001583,0.017822,0.006104,-0.998779,0.999994,0.001069,-0.003437,-0.000092,0.992511,0.122018,-0.005739,-0.000164,0.122574,-0.393799,-0.010925,14.018012,-0.650477,-0.098916,0.080734,1.864163,8.633446,0,0.004040771,0
1786125679.721776,0.001147,0.000824,-0.001849,0.018311,0.005615,-0.998291,0.999992,0.001172,-0.003748,-0.000101,0.987849,0.155107,-0.009766,-0.000180,0.134366,-0.429465,-0.012063,17.848777,-1.102377,-0.193960,0.129439,2.381929,8.518899,0,0.003887903,0
1786125679.741771,0.000747,0.001090,-0.001317,0.017578,0.005371,-0.997803,0.999991,0.001273,-0.004058,-0.000107,0.980582,0.195444,-0.016155,-0.000189,0.145921,-0.464981,-0.012903,22.550363,-1.811377,-0.383200,0.206031,3.011780,8.338262,0,0.003778691,0
1786125679.761914,0.000880,0.001357,-0.001317,0.017578,0.005615,-0.998047,0.999990,0.001377,-0.004366,-0.000114,0.969461,0.243851,-0.026095,-0.000195,0.157880,-0.500242,-0.013752,28.256735,-2.894679,-0.751833,0.327319,3.765993,8.057323,0,0.003704922,0
1786125679.782140,0.000481,0.000291,-0.001849,0.017578,0.004883,-0.998535,0.999988,0.001472,-0.004681,-0.000123,0.952958,0.300289,-0.041203,-0.000207,0.168708,-0.536387,-0.014907,35.037277,-4.496862,-1.444998,0.512762,4.643341,7.631390,0,0.003653953,0
1786125679.802141,0.000880,0.000691,-0.001716,0.017822,0.005371,-0.998535,0.999986,0.001573,-0.004993,-0.000132,0.929400,0.363595,-0.063352,-0.000212,0.180283,-0.572149,-0.015996,42.890649,-6.753827,-2.681758,0.786669,5.620213,7.008870,0,0.003606338,0
1786125679.822097,0.000747,0.000291,-0.001583,0.017090,0.005371,-0.998535,0.999985,0.001675,-0.005306,-0.000140,0.897535,0.430703,-0.094475,-0.000214,0.192069,-0.608050,-0.017020,51.676409,-9.753186,-4.758937,1.170533,6.635880,6.138833,0,0.003568864,0
1786125679.842043,0.000880,0.001090,-0.001849,0.017578,0.004639,-0.997559,0.999983,0.001770,-0.005618,-0.000149,0.857310,0.496544,-0.135880,-0.000209,0.202896,-0.643803,-0.018190,61.103034,-13.460468,-7.996931,1.679027,7.589722,4.997624,0,0.003540471,0
1786125679.862105,0.001147,0.000425,-0.001583,0.018066,0.005859,-0.998047,0.999981,0.001876,-0.005931,-0.000157,0.810200,0.555313,-0.187627,-0.000199,0.215115,-0.679563,-0.019230,70.830181,-17.686573,-12.653850,2.301280,8.358675,3.612108,0,0.003524185,0
1786125679.882108,0.000348,-0.000241,-0.001583,0.017578,0.004395,-0.998291,0.999979,0.001966,-0.006250,-0.000165,0.759483,0.601318,-0.248199,-0.000189,0.225414,-0.716142,-0.020260,80.453385,-22.134253,-18.817317,2.997689,8.832560,2.070673,0,0.003509417,0
1786125679.901849,0.000614,0.000691,-0.001450,0.017334,0.004883,-0.998047,0.999976,0.002063,-0.006563,-0.000172,0.708913,0.631296,-0.314495,-0.000170,0.236494,-0.752006,-0.021227,89.672571,-26.467134,-26.349053,3.713251,8.966198,0.508980,0,0.003487120,0
1786125679.922231,0.000081,0.000691,-0.002116,0.017578,0.005127,-0.998047,0.999974,0.002158,-0.006875,-0.000182,0.661561,0.644591,-0.383196,-0.000155,0.247470,-0.787810,-0.022584,98.315606,-30.451925,-34.980623,4.389365,8.786988,-0.947814,0,0.003497771,0
1786125679.942154,0.001280,0.000558,-0.001849,0.018066,0.005615,-0.997803,0.999972,0.002263,-0.007187,-0.000191,0.619571,0.642594,-0.450782,-0.000135,0.259490,-0.823581,-0.023801,106.259163,-33.945899,-44.312134,4.989631,8.373613,-2.221024,0,0.003486180,0
1786125679.961991,0.000614,0.000824,-0.001583,0.017822,0.004883,-0.998047,0.999969,0.002359,-0.007500,-0.000199,0.583728,0.627976,-0.514692,-0.000114,0.270465,-0.859400,-0.024862,113.480011,-36.922640,-53.975041,5.495616,7.817582,-3.276560,0,0.003473765,0
1786125679.982063,0.000747,0.000425,-0.001450,0.017090,0.004883,-0.998291,0.999966,0.002457,-0.007814,-0.000206,0.553802,0.603867,-0.573278,-0.000097,0.281749,-0.895379,-0.025858,120.024605,-39.408753,-63.669256,5.910130,7.198213,-4.123060,0,0.003474428,0
1786125680.002159,0.000747,0.001090,-0.002116,0.018066,0.004639,-0.998291,0.999964,0.002551,-0.008126,-0.000217,0.529390,0.573075,-0.625565,-0.000081,0.292514,-0.931128,-0.027231,125.912250,-41.471149,-73.138552,6.245738,6.567314,-4.790853,0,0.003475985,0
1786125680.022060,0.000614,0.000691,-0.001317,0.017334,0.004395,-0.998047,0.999961,0.002643,-0.008440,-0.000223,0.509634,0.538192,-0.671284,-0.000066,0.303171,-0.967114,-0.028155,131.214088,-43.168608,-82.218029,6.513841,5.957824,-5.309449,0,0.003468856,0
1786125680.042003,0.000081,0.000691,-0.001716,0.017578,0.004883,-0.998291,0.999958,0.002737,-0.008753,-0.000232,0.493830,0.501242,-0.710555,-0.000058,0.313944,-1.002979,-0.029320,135.973895,-44.565917,-90.786338,6.728949,5.387370,-5.712362,0,0.003465229,0
1786125680.062417,0.000747,0.000425,-0.001982,0.018555,0.005127,-0.998535,0.999955,0.002834,-0.009068,-0.000242,0.481316,0.463638,-0.743891,-0.000049,0.325064,-1.039006,-0.030645,140.247233,-45.729190,-98.796336,6.902369,4.862636,-6.023854,0,0.003482632,0
1786125680.081995,0.000481,0.000691,-0.001849,0.017822,0.005371,-0.998535,0.999952,0.002933,-0.009380,-0.000251,0.471425,0.426712,-0.771800,-0.000042,0.336465,-1.074750,-0.031907,144.082283,-46.690240,-106.198241,7.042172,4.384629,-6.263203,0,0.003460083,0
1786125680.102198,0.000215,0.000291,-0.001849,0.018311,0.004883,-0.998047,0.999948,0.003026,-0.009695,-0.000260,0.463725,0.390999,-0.795034,-0.000039,0.347147,-1.110893,-0.033167,147.527502,-47.503947,-113.018775,7.156501,3.952566,-6.447648,0,0.003469691,0
1786125680.122133,0.000348,0.000824,-0.001583,0.017090,0.005127,-0.997559,0.999945,0.003125,-0.010006,-0.000268,0.457670,0.357166,-0.814230,-0.000033,0.358452,-1.146567,-0.034290,150.632788,-48.182653,-119.264643,7.250218,3.563340,-6.588363,0,0.003465536,0
1786125680.141858,0.000481,0.000824,-0.001583,0.018066,0.005371,-0.998779,0.999942,0.003224,-0.010318,-0.000276,0.453112,0.325485,-0.829909,-0.000027,0.369792,-1.182253,-0.035419,153.410288,-48.769692,-124.942847,7.329200,3.213235,-6.699047,0,0.003453475,0
1786125680.162130,0.000880,0.000691,-0.001849,0.017578,0.005615,-0.998291,0.999938,0.003327,-0.010629,-0.000285,0.449640,0.296044,-0.842723,-0.000021,0.381711,-1.217908,-0.036715,155.914860,-49.273382,-130.112136,7.395324,2.899802,-6.780044,0,0.003467679,0
1786125680.181871,0.000747,0.000824,-0.001982,0.017822,0.005371,-0.998047,0.999934,0.003428,-0.010940,-0.000295,0.447121,0.268900,-0.853098,-0.000017,0.393294,-1.253566,-0.038088,158.163708,-49.717557,-134.795779,7.452143,2.617596,-6.841273,0,0.003455774,0
1786125680.202130,0.000481,0.001224,-0.001583,0.017578,0.004883,-0.998291,0.999930,0.003525,-0.011250,-0.000303,0.445334,0.243921,-0.861499,-0.000013,0.404383,-1.289100,-0.039230,160.195405,-50.112265,-139.051251,7.501371,2.364275,-6.885756,0,0.003468867,0
1786125680.221886,0.000481,0.000558,-0.001849,0.017578,0.005127,-0.998291,0.999927,0.003623,-0.011563,-0.000312,0.444147,0.221172,-0.868226,-0.000013,0.415685,-1.324950,-0.040538,162.020520,-50.464817,-142.889472,7.544804,2.136824,-6.917147,0,0.003457279,0
1786125680.241955,0.000747,0.000824,-0.001716,0.018066,0.004639,-0.997559,0.999923,0.003718,-0.011876,-0.000320,0.443500,0.200407,-0.873582,-0.000010,0.426629,-1.360800,-0.041764,163.665982,-50.792571,-146.363362,7.583904,1.932362,-6.937096,0,0.003461913,0
1786125680.262143,0.000348,0.000291,-0.001982,0.017090,0.005127,-0.998047,0.999918,0.003817,-0.012190,-0.000330,0.443158,0.181607,-0.877855,-0.000012,0.437986,-1.396763,-0.043167,165.151687,-51.082577,-149.497303,7.618458,1.749391,-6.948918,0,0.003470471,0
1786125680.281817,0.000747,0.000691,-0.002116,0.017578,0.005371,-0.998535,0.999914,0.003919,-0.012502,-0.000341,0.443183,0.164634,-0.881184,-0.000011,0.449652,-1.432473,-0.044653,166.484407,-51.356540,-152.313040,7.650287,1.584844,-6.955308,0,0.003454996,0
1786125680.301880,0.000747,0.001090,-0.001317,0.018066,0.005371,-0.998047,0.999910,0.004019,-0.012812,-0.000347,0.443517,0.149268,-0.883749,-0.000007,0.461199,-1.467990,-0.045684,167.685486,-51.620294,-154.852759,7.680232,1.437208,-6.954319,0,0.003459913,0
1786125680.322070,0.000747,0.001090,-0.001849,0.017822,0.005615,-0.999023,0.999905,0.004122,-0.013121,-0.000356,0.444042,0.135410,-0.885715,-0.000006,0.473006,-1.503427,-0.047033,168.768778,-51.867817,-157.140426,7.708098,1.304832,-6.949471,0,0.003469042,0
1786125680.341876,0.000747,0.000291,-0.001849,0.017578,0.005371,-0.998291,0.999901,0.004224,-0.013435,-0.000365,0.444716,0.122897,-0.887200,-0.000006,0.484696,-1.539357,-0.048390,169.748631,-52.101751,-159.205508,7.734002,1.185370,-6.939715,0,0.003459541,0
1786125680.362079,0.000880,0.000691,-0.001716,0.017334,0.004883,-0.998291,0.999896,0.004323,-0.013747,-0.000374,0.445518,0.111551,-0.888296,-0.000004,0.496160,-1.575152,-0.049668,170.639622,-52.326202,-161.078562,7.758480,1.077457,-6.927908,0,0.003469329,0
1786125680.381858,0.000614,0.000425,-0.001716,0.018066,0.004395,-0.998047,0.999891,0.004417,-0.014062,-0.000382,0.446500,0.101280,-0.889033,-0.000004,0.506960,-1.611250,-0.050939,171.445080,-52.551988,-162.772012,7.782730,0.979721,-6.913692,0,0.003458643,0
1786125680.402070,0.000481,0.000691,-0.001849,0.017578,0.005127,-0.997803,0.999886,0.004516,-0.014374,-0.000391,0.447536,0.092097,-0.889511,-0.000006,0.518329,-1.647004,-0.052310,172.168687,-52.766369,-164.288472,7.805841,0.892681,-6.896221,0,0.003469022,0
1786125680.422021,0.000880,0.000957,-0.001317,0.017334,0.005859,-0.998047,0.999881,0.004622,-0.014683,-0.000398,0.448627,0.083903,-0.889772,-0.000003,0.530501,-1.682425,-0.053398,172.817984,-52.972966,-165.643971,7.827902,0.814742,-6.878255,0,0.003465728,0
1786125680.442097,0.000747,0.000558,-0.002116,0.017090,0.003906,-0.998047,0.999876,0.004716,-0.014998,-0.000408,0.449765,0.076318,-0.889880,-0.000004,0.541281,-1.718474,-0.054914,173.422277,-53.175358,-166.901490,7.848954,0.742717,-6.859121,0,0.003468548,0
1786125680.461908,0.000614,0.000824,-0.001450,0.017578,0.004639,-0.998291,0.999871,0.004813,-0.015310,-0.000415,0.450996,0.069561,-0.889811,-0.000004,0.552400,-1.754250,-0.056067,173.961585,-53.379353,-168.022186,7.870302,0.678329,-6.839265,0,0.003459393,0
1786125680.482084,0.000614,0.000558,-0.001849,0.017334,0.004883,-0.998047,0.999866,0.004911,-0.015623,-0.000425,0.452248,0.063498,-0.889629,-0.000005,0.563753,-1.790108,-0.057463,174.448009,-53.577955,-169.029972,7.890910,0.620686,-6.817301,0,0.003468080,0
1786125680.501934,0.000880,0.000691,-0.001583,0.017578,0.005615,-0.997803,0.999860,0.005015,-0.015934,-0.000432,0.453554,0.058114,-0.889332,-0.000003,0.575706,-1.825752,-0.058727,174.881423,-53.776701,-169.925766,7.911409,0.569274,-6.794857,0,0.003460679,0
1786125680.521889,0.000614,0.000558,-0.002116,0.018066,0.005615,-0.997803,0.999855,0.005117,-0.016246,-0.000443,0.454929,0.053265,-0.888933,-0.000006,0.587423,-1.861498,-0.060301,175.271891,-53.979108,-170.732792,7.932035,0.523076,-6.771663,0,0.003459631,0
1786125680.541847,0.000747,0.000291,-0.001583,0.016846,0.005371,-0.998535,0.999849,0.005220,-0.016559,-0.000451,0.456220,0.048868,-0.888524,-0.000005,0.599306,-1.897368,-0.061581,175.630980,-54.166758,-171.468963,7.951219,0.481065,-6.747931,0,0.003458943,0
1786125680.561858,0.000215,0.000558,-0.001982,0.017334,0.004883,-0.997559,0.999843,0.005317,-0.016872,-0.000461,0.457577,0.044851,-0.888038,-0.000010,0.610478,-1.933212,-0.063082,175.959053,-54.359617,-172.141819,7.970588,0.442679,-6.723833,0,0.003460651,0
1786125680.582217,0.000348,0.000558,-0.001716,0.017090,0.005127,-0.998535,0.999838,0.005417,-0.017185,-0.000469,0.458929,0.041246,-0.887515,-0.000011,0.621932,-1.968993,-0.064445,176.255574,-54.548972,-172.747351,7.989634,0.408185,-6.700483,0,0.003476855,0
1786125680.602150,0.000747,0.000824,-0.001982,0.017578,0.005371,-0.998779,0.999832,0.005519,-0.017495,-0.000479,0.460336,0.038024,-0.886930,-0.000011,0.633683,-2.004600,-0.065968,176.521191,-54.742947,-173.288866,8.008998,0.377185,-6.676374,0,0.003470820,0
1786125680.622018,0.000348,0.000291,-0.001317,0.017822,0.005859,-0.998047,0.999826,0.005621,-0.017808,-0.000485,0.461768,0.035164,-0.886303,-0.000011,0.645457,-2.040432,-0.067128,176.757238,-54.938166,-173.769759,8.028404,0.349644,-6.650348,0,0.003463525,0
1786125680.641885,0.000880,0.000824,-0.001849,0.016846,0.004639,-0.998291,0.999819,0.005721,-0.018120,-0.000494,0.463131,0.032462,-0.885695,-0.000009,0.656980,-2.076133,-0.068578,176.984034,-55.123363,-174.227469,8.046733,0.323614,-6.624595,0,0.003458015,0
1786125680.662095,0.000614,0.000158,-0.001583,0.017090,0.005371,-0.998047,0.999813,0.005824,-0.018434,-0.000502,0.464517,0.030094,-0.885053,-0.000009,0.668762,-2.112088,-0.069901,177.182642,-55.309950,-174.628575,8.065077,0.300697,-6.599725,0,0.003468465,0
1786125680.682280,0.000614,0.000824,-0.001849,0.017578,0.004883,-0.997803,0.999807,0.005923,-0.018745,-0.000511,0.465957,0.027902,-0.884368,-0.000010,0.680165,-2.147779,-0.071365,177.366797,-55.502728,-175.000095,8.083865,0.279544,-6.574154,0,0.003475281,0
1786125680.702131,0.000348,0.000558,-0.001583,0.017578,0.005371,-0.997559,0.999800,0.006023,-0.019057,-0.000519,0.467397,0.025974,-0.883666,-0.000011,0.691710,-2.183532,-0.072696,177.528892,-55.694538,-175.327113,8.102575,0.260843,-6.547664,0,0.003466173,0
1786125680.722404,0.000614,0.000691,-0.002116,0.017334,0.005127,-0.998291,0.999794,0.006124,-0.019369,-0.000530,0.468821,0.024209,-0.882961,-0.000013,0.703323,-2.219235,-0.074335,177.678223,-55.883775,-175.627283,8.120901,0.243790,-6.522002,0,0.003477298,0
1786125680.742638,0.001147,0.000291,-0.002116,0.017578,0.005127,-0.998779,0.999787,0.006227,-0.019683,-0.000540,0.470266,0.022614,-0.882235,-0.000010,0.715204,-2.255178,-0.075983,177.814141,-56.075037,-175.899178,8.139317,0.228248,-6.496387,0,0.003484070,0
1786125680.762127,0.000348,0.000824,-0.001716,0.017334,0.005615,-0.998291,0.999780,0.006329,-0.019993,-0.000549,0.471692,0.021222,-0.881508,-0.000012,0.726955,-2.290713,-0.077417,177.931923,-56.263401,-176.135931,8.157453,0.214674,-6.469204,0,0.003457327,0
1786125680.782162,0.000880,0.000824,-0.001716,0.017578,0.004883,-0.997803,0.999773,0.006430,-0.020304,-0.000557,0.473141,0.019887,-0.880762,-0.000010,0.738551,-2.326392,-0.078841,178.046581,-56.454683,-176.364302,8.175654,0.201677,-6.442358,0,0.003460485,0
1786125680.801964,0.000614,0.000291,-0.001450,0.017578,0.005127,-0.998047,0.999766,0.006530,-0.020618,-0.000564,0.474584,0.018703,-0.880011,-0.000009,0.750136,-2.362332,-0.080128,178.148089,-56.644897,-176.566772,8.193740,0.190080,-6.415822,0,0.003452930,0
1786125680.821859,0.000481,0.000824,-0.002116,0.018066,0.004639,-0.998047,0.999759,0.006627,-0.020930,-0.000575,0.476074,0.017585,-0.879230,-0.000012,0.761308,-2.398070,-0.081785,178.243643,-56.840969,-176.757942,8.212237,0.179239,-6.388893,0,0.003451237,0
1786125680.841828,0.000880,0.000824,-0.001183,0.017578,0.005615,-0.998291,0.999752,0.006732,-0.021240,-0.000580,0.477521,0.016670,-0.878462,-0.000008,0.773316,-2.433620,-0.082942,178.322036,-57.031307,-176.913996,8.230160,0.170171,-6.361362,0,0.003453077,0
1786125680.861822,0.000747,0.000957,-0.001849,0.017334,0.004883,-0.998535,0.999744,0.006832,-0.021551,-0.000589,0.478949,0.015770,-0.877701,-0.000008,0.784912,-2.469200,-0.084471,178.399757,-57.219204,-177.068498,8.247709,0.161425,-6.334503,0,0.003455509,0
1786125680.881811,0.000614,0.000558,-0.002116,0.017334,0.005371,-0.998535,0.999737,0.006934,-0.021863,-0.000600,0.480373,0.015008,-0.876936,-0.000010,0.796712,-2.504921,-0.086174,178.464219,-57.406406,-177.198066,8.265128,0.153980,-6.307766,0,0.003457185,0
1786125680.901806,0.000747,0.000558,-0.001982,0.017822,0.005371,-0.998291,0.999729,0.007037,-0.022175,-0.000610,0.481837,0.014319,-0.876144,-0.000011,0.808508,-2.540667,-0.087805,178.522407,-57.598850,-177.315100,8.282927,0.147248,-6.280719,0,0.003458657,0
1786125680.922280,0.000880,0.000691,-0.001583,0.018066,0.004883,-0.998291,0.999721,0.007137,-0.022487,-0.000617,0.483325,0.013638,-0.875335,-0.000009,0.820078,-2.576430,-0.089199,178.580972,-57.794552,-177.431473,8.300889,0.140604,-6.253055,0,0.003480217,0
1786125680.941890,0.000614,0.000824,-0.001450,0.018066,0.004639,-0.997803,0.999714,0.007235,-0.022798,-0.000624,0.484810,0.012995,-0.874523,-0.000008,0.831370,-2.612155,-0.090518,178.636372,-57.989947,-177.541629,8.318806,0.134286,-6.224372,0,0.003459599,0
1786125680.962083,0.000614,0.000291,-0.001317,0.016846,0.004639,-0.998291,0.999706,0.007335,-0.023112,-0.000631,0.486189,0.012411,-0.873765,-0.000007,0.842861,-2.648125,-0.091780,178.687305,-58.171486,-177.642150,8.335313,0.128542,-6.196738,0,0.003468938,0
1786125680.981906,0.000747,0.000291,-0.001849,0.018066,0.004883,-0.998047,0.999698,0.007435,-0.023427,-0.000640,0.487666,0.011914,-0.872949,-0.000008,0.854380,-2.684110,-0.093352,178.729024,-58.365920,-177.726347,8.352967,0.123632,-6.170227,0,0.003460224,0
1786125681.002078,0.000081,0.000291,-0.001583,0.017578,0.005127,-0.997803,0.999690,0.007533,-0.023740,-0.000648,0.489103,0.011486,-0.872150,-0.000012,0.865718,-2.720032,-0.094787,178.763593,-58.555108,-177.797768,8.369988,0.119512,-6.141759,0,0.003468479,0
1786125681.022241,0.001147,0.000691,-0.001716,0.018066,0.005371,-0.998047,0.999681,0.007637,-0.024052,-0.000656,0.490582,0.011129,-0.871324,-0.000009,0.877719,-2.755710,-0.096306,178.792249,-58.749938,-177.856558,8.387462,0.115969,-6.114404,0,0.003474390,0
1786125681.042217,0.000747,0.000824,-0.002116,0.017578,0.005371,-0.998291,0.999673,0.007740,-0.024362,-0.000666,0.492019,0.010810,-0.870517,-0.000010,0.889587,-2.791282,-0.098063,178.816709,-58.939372,-177.908441,8.404340,0.112917,-6.086198,0,0.003470784,0
1786125681.062154,0.000614,0.000691,-0.001716,0.017334,0.005859,-0.998047,0.999665,0.007845,-0.024672,-0.000675,0.493432,0.010571,-0.869720,-0.000011,0.901655,-2.826841,-0.099613,178.833078,-59.125750,-177.945347,8.420862,0.110607,-6.058271,0,0.003466489,0
1786125681.082377,0.000880,0.000957,-0.001450,0.018066,0.004883,-0.998291,0.999656,0.007945,-0.024983,-0.000682,0.494907,0.010250,-0.868885,-0.000008,0.913281,-2.862435,-0.100986,178.859093,-59.320540,-177.998562,8.438042,0.107559,-6.031141,0,0.003475433,0
1786125681.102163,0.000348,0.000558,-0.001982,0.017822,0.004883,-0.997314,0.999647,0.008044,-0.025296,-0.000692,0.496356,0.009963,-0.868062,-0.000012,0.924662,-2.898240,-0.102677,178.880640,-59.512009,-178.044898,8.454821,0.104843,-6.001631,0,0.003463474,0
1786125681.122216,0.000614,0.000691,-0.001716,0.017578,0.004395,-0.998291,0.999639,0.008142,-0.025608,-0.000700,0.497783,0.009651,-0.867248,-0.000012,0.935990,-2.934031,-0.104211,178.906333,-59.700821,-178.097187,8.471271,0.101855,-5.974404,0,0.003465901,0
1786125681.141893,0.000614,0.000691,-0.001583,0.017334,0.005371,-0.998535,0.999630,0.008245,-0.025919,-0.000708,0.499186,0.009472,-0.866443,-0.000012,0.947827,-2.969665,-0.105702,178.917575,-59.886356,-178.123748,8.487381,0.100042,-5.946814,0,0.003451681,0
1786125681.161781,0.001413,0.000824,-0.001317,0.017578,0.005127,-0.997803,0.999621,0.008350,-0.026230,-0.000714,0.500608,0.009287,-0.865624,-0.000005,0.959966,-3.005271,-0.107038,178.931032,-60.074683,-178.152552,8.503621,0.098188,-5.918628,0,0.003449978,0
1786125681.181810,0.000880,0.000824,-0.001583,0.017578,0.005127,-0.998291,0.999612,0.008452,-0.026541,-0.000722,0.502028,0.009120,-0.864804,-0.000004,0.971819,-3.040872,-0.108534,178.941396,-60.262879,-178.177212,8.519753,0.096611,-5.891222,0,0.003454689,0
1786125681.201764,0.001013,0.001224,-0.001849,0.018066,0.005371,-0.998779,0.999603,0.008556,-0.026849,-0.000731,0.503487,0.008998,-0.863956,-0.000004,0.983804,-3.076226,-0.110189,178.946305,-60.456500,-178.192600,8.536309,0.095486,-5.863711,0,0.003455027,0
1786125681.221788,0.001280,0.000957,-0.001716,0.017334,0.004639,-0.998047,0.999593,0.008659,-0.027160,-0.000739,0.504885,0.008812,-0.863142,-0.000001,0.995713,-3.111804,-0.111765,178.959785,-60.642143,-178.221731,8.551945,0.093760,-5.834223,0,0.003458310,0
1786125681.242103,0.000481,0.000691,-0.001849,0.017578,0.004883,-0.998535,0.999584,0.008759,-0.027471,-0.000748,0.506300,0.008669,-0.862314,-0.000005,1.007255,-3.147507,-0.113431,178.966950,-60.830139,-178.241522,8.567792,0.092469,-5.807101,0,0.003473164,0
1786125681.261815,0.000880,0.000558,-0.001849,0.017334,0.005615,-0.998291,0.999574,0.008864,-0.027783,-0.000757,0.507689,0.008622,-0.861497,-0.000006,1.019400,-3.183168,-0.115126,178.963676,-61.014836,-178.242538,8.583267,0.092049,-5.778818,0,0.003458622,0
1786125681.281786,0.000348,0.000558,-0.001849,0.017334,0.004639,-0.998291,0.999565,0.008963,-0.028095,-0.000766,0.509076,0.008476,-0.860680,-0.000010,1.030804,-3.218966,-0.116804,178.971557,-61.199554,-178.263250,8.598636,0.090900,-5.751179,0,0.003458748,0
1786125681.301762,0.000348,0.000824,-0.001583,0.017822,0.005371,-0.997803,0.999555,0.009064,-0.028406,-0.000774,0.510503,0.008423,-0.859835,-0.000012,1.042464,-3.254532,-0.118348,178.968471,-61.389641,-178.265120,8.614431,0.090437,-5.722971,0,0.003459030,0
1786125681.321779,0.000614,0.000691,-0.001450,0.018311,0.005615,-0.998291,0.999545,0.009167,-0.028717,-0.000781,0.511965,0.008404,-0.858965,-0.000011,1.054317,-3.290162,-0.119826,178.961535,-61.584550,-178.260067,8.630538,0.090375,-5.694935,0,0.003461012,0
1786125681.341765,0.000215,0.001090,-0.001716,0.017822,0.005371,-0.997803,0.999535,0.009267,-0.029026,-0.000790,0.513390,0.008365,-0.858115,-0.000015,1.065915,-3.325571,-0.121459,178.956293,-61.774672,-178.258627,8.646017,0.090252,-5.665048,0,0.003461176,0
1786125681.361760,0.000481,0.001090,-0.001716,0.017334,0.004639,-0.998535,0.999525,0.009367,-0.029335,-0.000798,0.514772,0.008256,-0.857287,-0.000016,1.077416,-3.361058,-0.123083,178.960637,-61.959421,-178.272438,8.660971,0.089400,-5.637122,0,0.003461702,0
1786125681.381764,0.000747,0.000691,-0.001583,0.017578,0.005371,-0.997559,0.999515,0.009470,-0.029646,-0.000806,0.516169,0.008238,-0.856447,-0.000014,1.089356,-3.396684,-0.124660,178.953999,-62.146248,-178.267445,8.676093,0.089228,-5.608330,0,0.003462430,0
1786125681.401750,0.000348,0.000691,-0.001450,0.018311,0.005859,-0.998047,0.999505,0.009572,-0.029957,-0.000813,0.517622,0.008275,-0.855570,-0.000015,1.101177,-3.432276,-0.126173,178.939413,-62.340552,-178.250181,8.691816,0.089749,-5.580556,0,0.003462239,0
1786125681.421765,0.000614,0.000025,-0.001583,0.017578,0.005127,-0.998047,0.999495,0.009674,-0.030271,-0.000820,0.519008,0.008236,-0.854730,-0.000015,1.112949,-3.468313,-0.127766,178.934989,-62.526260,-178.249189,8.706516,0.089638,-5.551215,0,0.003463343,0
1786125681.441818,0.001147,0.000957,-0.001849,0.017334,0.005127,-0.998047,0.999484,0.009779,-0.030581,-0.000829,0.520380,0.008209,-0.853895,-0.000012,1.125071,-3.503802,-0.129510,178.929745,-62.710342,-178.246255,8.721071,0.089465,-5.522864,0,0.003465797,0
1786125681.461810,0.000614,0.000558,-0.001849,0.017822,0.005127,-0.997803,0.999474,0.009880,-0.030893,-0.000838,0.521786,0.008185,-0.853037,-0.000013,1.136832,-3.539537,-0.131262,178.922820,-62.899032,-178.241712,8.736018,0.089405,-5.494700,0,0.003465053,0
1786125681.481794,0.000348,0.001090,-0.001982,0.017090,0.005127,-0.998047,0.999463,0.009982,-0.031202,-0.000848,0.523135,0.008167,-0.852211,-0.000017,1.148546,-3.574935,-0.133097,178.914882,-63.080331,-178.235783,8.750099,0.089456,-5.466110,0,0.003464152,0
1786125681.502032,0.000348,0.000425,-0.001716,0.017578,0.005371,-0.998291,0.999452,0.010083,-0.031514,-0.000857,0.524516,0.008179,-0.851361,-0.000019,1.160293,-3.610703,-0.134797,178.903034,-63.266021,-178.223354,8.764625,0.089753,-5.438807,0,0.003474280,0
1786125681.522060,0.000614,0.000824,-0.001583,0.018066,0.004639,-0.998291,0.999441,0.010183,-0.031826,-0.000864,0.525936,0.008115,-0.850485,-0.000018,1.171830,-3.646356,-0.136401,178.901617,-63.457290,-178.227479,8.779496,0.089347,-5.410354,0,0.003472961,0
1786125681.542154,0.001280,0.001090,-0.001982,0.017578,0.004883,-0.998535,0.999430,0.010287,-0.032135,-0.000874,0.527317,0.008091,-0.849630,-0.000014,1.183928,-3.681800,-0.138248,178.895565,-63.643479,-178.223351,8.793714,0.089152,-5.381282,0,0.003474800,0
1786125681.561858,0.000481,0.000425,-0.002116,0.017090,0.005371,-0.998047,0.999419,0.010390,-0.032447,-0.000884,0.528650,0.008124,-0.848801,-0.000017,1.195842,-3.717540,-0.140203,178.880577,-63.823261,-178.206165,8.807365,0.089642,-5.352366,0,0.003459542,0
1786125681.581814,0.001413,0.000824,-0.001450,0.018066,0.005127,-0.998291,0.999408,0.010496,-0.032758,-0.000891,0.530061,0.008129,-0.847921,-0.000010,1.208050,-3.753128,-0.141765,178.870739,-64.013665,-178.195606,8.821999,0.089805,-5.324920,0,0.003458786,0
1786125681.601800,0.000614,0.001224,-0.001583,0.017822,0.005371,-0.997314,0.999397,0.010599,-0.033066,-0.000899,0.531454,0.008162,-0.847048,-0.000011,1.219939,-3.788442,-0.143414,178.855329,-64.201938,-178.177759,8.836122,0.090308,-5.294582,0,0.003459489,0
1786125681.621711,0.000614,0.000691,-0.001982,0.017822,0.005371,-0.997803,0.999385,0.010701,-0.033377,-0.000909,0.532839,0.008200,-0.846177,-0.000013,1.231849,-3.824055,-0.145306,178.838652,-64.389275,-178.158369,8.850151,0.090955,-5.266148,0,0.003456830,0
1786125681.642060,0.000348,0.001090,-0.002116,0.018311,0.005371,-0.997803,0.999374,0.010802,-0.033686,-0.000919,0.534265,0.008240,-0.845277,-0.000018,1.243557,-3.859454,-0.147273,178.820557,-64.582429,-178.137557,8.864587,0.091666,-5.237153,0,0.003473513,0
1786125681.661839,0.000747,0.000957,-0.001583,0.018311,0.004883,-0.998291,0.999362,0.010904,-0.033996,-0.000927,0.535685,0.008226,-0.844378,-0.000016,1.255291,-3.894994,-0.148930,178.811438,-64.774968,-178.129763,8.878818,0.091767,-5.207803,0,0.003461773,0
1786125681.681816,0.000481,0.000425,-0.001450,0.017578,0.004883,-0.998291,0.999350,0.011005,-0.034308,-0.000934,0.537041,0.008215,-0.843516,-0.000016,1.266961,-3.930812,-0.150531,178.801871,-64.959009,-178.121374,8.892140,0.091821,-5.178089,0,0.003461365,0
1786125681.701767,0.000481,0.000291,-0.001716,0.017822,0.005859,-0.997803,0.999338,0.011108,-0.034621,-0.000942,0.538412,0.008316,-0.842641,-0.000017,1.278988,-3.966593,-0.152318,178.775250,-65.145183,-178.086697,8.905756,0.092946,-5.149089,0,0.003459941,0
1786125681.721756,0.000880,0.000691,-0.001849,0.018066,0.004639,-0.998535,0.999326,0.011210,-0.034932,-0.000951,0.539803,0.008285,-0.841751,-0.000016,1.290763,-4.002296,-0.154149,178.768121,-65.334310,-178.082282,8.919478,0.093028,-5.120814,0,0.003460489,0
1786125681.741811,0.000215,0.000824,-0.001849,0.017090,0.005615,-0.998291,0.999314,0.011312,-0.035242,-0.000960,0.541117,0.008364,-0.840906,-0.000020,1.302647,-4.037769,-0.156020,178.744043,-65.513085,-178.052217,8.932075,0.093943,-5.091136,0,0.003463735,0
1786125681.761783,0.000880,0.000558,-0.001583,0.017578,0.004883,-0.997314,0.999302,0.011415,-0.035554,-0.000968,0.542465,0.008363,-0.840037,-0.000017,1.314573,-4.073503,-0.157725,178.732752,-65.696816,-178.041006,8.945271,0.094218,-5.062341,0,0.003462631,0
1786125681.781817,0.000880,0.000158,-0.001982,0.017578,0.004883,-0.997803,0.999290,0.011518,-0.035868,-0.000977,0.543806,0.008369,-0.839169,-0.000017,1.326522,-4.109458,-0.159672,178.719736,-65.879867,-178.027690,8.958231,0.094458,-5.034240,0,0.003464432,0
1786125681.801766,0.000747,-0.000108,-0.001716,0.017578,0.004639,-0.998047,0.999277,0.011620,-0.036183,-0.000986,0.545143,0.008349,-0.838302,-0.000016,1.338299,-4.145596,-0.161471,178.710576,-66.062411,-178.020359,8.971063,0.094456,-5.005934,0,0.003462188,0
1786125681.821806,0.000348,0.001357,-0.001450,0.017822,0.004883,-0.997803,0.999265,0.011720,-0.036491,-0.000993,0.546508,0.008357,-0.837412,-0.000017,1.349902,-4.180878,-0.163109,178.696305,-66.249081,-178.005752,8.984152,0.094684,-4.976874,0,0.003464345,0
1786125681.841733,0.000348,0.000425,-0.001716,0.017334,0.004639,-0.998535,0.999252,0.011820,-0.036804,-0.001001,0.547825,0.008345,-0.836551,-0.000019,1.361487,-4.216699,-0.164917,178.685229,-66.429238,-177.996114,8.996508,0.094813,-4.948526,0,0.003461178,0
1786125681.862016,0.001280,0.000558,-0.001450,0.018066,0.005371,-0.998291,0.999239,0.011926,-0.037115,-0.001008,0.549198,0.008417,-0.835650,-0.000014,1.373781,-4.252390,-0.166592,178.661826,-66.617215,-177.966440,9.009631,0.095543,-4.919994,0,0.003473988,0
1786125681.881810,0.001013,0.000558,-0.001450,0.018066,0.005127,-0.998291,0.999226,0.012030,-0.037427,-0.001015,0.550566,0.008461,-0.834749,-0.000011,1.385842,-4.288105,-0.168267,178.642008,-66.804813,-177.943025,9.022451,0.096229,-4.890446,0,0.003462751,0
1786125681.901798,0.000348,0.000824,-0.001583,0.017578,0.006348,-0.998047,0.999214,0.012135,-0.037736,-0.001023,0.551897,0.008636,-0.833868,-0.000013,1.398021,-4.323508,-0.170060,178.599456,-66.987225,-177.886416,9.034683,0.098175,-4.860626,0,0.003462570,0
1786125681.921760,0.000081,0.000824,-0.001849,0.017578,0.005371,-0.997803,0.999201,0.012236,-0.038046,-0.001032,0.553225,0.008701,-0.832986,-0.000019,1.409720,-4.359017,-0.171986,178.573532,-67.169666,-177.855778,9.046937,0.099434,-4.831594,0,0.003461338,0
1786125681.941761,0.000880,0.000558,-0.001849,0.017334,0.005371,-0.998291,0.999187,0.012341,-0.038357,-0.001041,0.554530,0.008770,-0.832118,-0.000018,1.421907,-4.394669,-0.173927,178.548338,-67.349006,-177.825021,9.058838,0.100393,-4.803327,0,0.003462049,0
1786125681.961753,0.001147,0.000558,-0.001450,0.017090,0.004883,-0.998047,0.999174,0.012446,-0.038669,-0.001048,0.555814,0.008784,-0.831260,-0.000013,1.434092,-4.430370,-0.175634,178.532989,-67.525793,-177.808403,9.070464,0.100768,-4.774731,0,0.003462231,0
1786125681.982036,0.000481,0.000824,-0.001849,0.017822,0.004639,-0.998535,0.999161,0.012546,-0.038979,-0.001057,0.557154,0.008774,-0.830363,-0.000016,1.445754,-4.465963,-0.177561,178.518842,-67.710573,-177.795520,9.082831,0.100948,-4.747199,0,0.003474764,0
1786125682.001794,0.000481,0.000425,-0.001583,0.017578,0.004883,-0.998047,0.999147,0.012648,-0.039292,-0.001064,0.558469,0.008794,-0.829479,-0.000017,1.457521,-4.501753,-0.179357,178.500212,-67.891937,-177.775580,9.094602,0.101307,-4.717518,0,0.003461782,0
1786125682.021785,0.000215,0.001090,-0.001583,0.017822,0.005371,-0.998047,0.999134,0.012749,-0.039600,-0.001072,0.559804,0.008869,-0.828577,-0.000020,1.469278,-4.537116,-0.181162,178.471123,-68.076324,-177.740777,9.106628,0.102275,-4.688623,0,0.003461967,0
1786125682.041781,0.000481,0.000957,-0.001849,0.017578,0.004639,-0.997803,0.999120,0.012850,-0.039910,-0.001081,0.561118,0.008868,-0.827688,-0.000021,1.480982,-4.572620,-0.183112,178.455080,-68.258061,-177.725151,9.118208,0.102665,-4.659096,0,0.003462350,0
1786125682.061947,0.000880,0.000291,-0.001583,0.017578,0.005127,-0.999023,0.999106,0.012954,-0.040223,-0.001089,0.562424,0.008923,-0.826801,-0.000019,1.493074,-4.608456,-0.184939,178.430098,-68.438673,-177.695616,9.129731,0.103325,-4.631537,0,0.003469840,0
1786125682.081961,0.000348,0.000291,-0.001583,0.018555,0.005615,-0.998047,0.999092,0.013056,-0.040536,-0.001096,0.563801,0.009030,-0.825862,-0.000020,1.504925,-4.644272,-0.186778,178.393588,-68.629269,-177.650676,9.142117,0.104648,-4.601785,0,0.003469027,0
1786125682.102197,-0.000052,0.000291,-0.001450,0.017334,0.005371,-0.997803,0.999078,0.013156,-0.040848,-0.001104,0.565085,0.009107,-0.824983,-0.000024,1.516593,-4.680073,-0.188552,178.362335,-68.807291,-177.613576,9.152838,0.105856,-4.571119,0,0.003477886,0
1786125682.121799,0.000081,0.000558,-0.001849,0.018311,0.005371,-0.997314,0.999064,0.013256,-0.041159,-0.001113,0.566439,0.009187,-0.824052,-0.000027,1.528255,-4.715747,-0.190551,178.328877,-68.995208,-177.574000,9.164895,0.107048,-4.542139,0,0.003457541,0
1786125682.141885,0.000747,0.000025,-0.001716,0.017822,0.005371,-0.998535,0.999050,0.013360,-0.041473,-0.001121,0.567749,0.009270,-0.823150,-0.000025,1.540348,-4.751712,-0.192493,178.296463,-69.177159,-177.534846,9.175952,0.108180,-4.513391,0,0.003462805,0
1786125682.161824,0.000481,0.000025,-0.001583,0.018066,0.005371,-0.997559,0.999035,0.013463,-0.041787,-0.001129,0.569075,0.009350,-0.822233,-0.000025,1.552261,-4.787685,-0.194364,178.263226,-69.361575,-177.495209,9.187317,0.109296,-4.483268,0,0.003460533,0
1786125682.181752,0.000747,0.000291,-0.001849,0.017822,0.005371,-0.998535,0.999021,0.013567,-0.042100,-0.001138,0.570381,0.009433,-0.821326,-0.000024,1.564368,-4.823493,-0.196393,178.229202,-69.543348,-177.454510,9.198267,0.110454,-4.454618,0,0.003458331,0
1786125682.201772,0.000614,0.000691,-0.001583,0.018066,0.004639,-0.997559,0.999006,0.013668,-0.042411,-0.001145,0.571707,0.009434,-0.820404,-0.000023,1.576128,-4.859157,-0.198249,178.209730,-69.728342,-177.435107,9.209463,0.110835,-4.424376,0,0.003460596,0
1786125682.221794,0.000880,0.000824,-0.001450,0.017334,0.004883,-0.998047,0.998991,0.013772,-0.042721,-0.001152,0.572977,0.009465,-0.819517,-0.000020,1.588193,-4.894698,-0.200046,178.185444,-69.905640,-177.408158,9.219761,0.111274,-4.395124,0,0.003462398,0
1786125682.241769,0.001013,0.000824,-0.001716,0.017822,0.005371,-0.997803,0.998977,0.013877,-0.043031,-0.001160,0.574280,0.009555,-0.818603,-0.000017,1.600458,-4.930199,-0.202013,178.148753,-70.087665,-177.364144,9.230722,0.112341,-4.366357,0,0.003461765,0
1786125682.261769,0.000481,-0.000108,-0.001317,0.017090,0.005615,-0.999023,0.998962,0.013981,-0.043345,-0.001167,0.575518,0.009664,-0.817732,-0.000017,1.612560,-4.966190,-0.203786,178.107852,-70.260626,-177.314453,9.240588,0.113760,-4.338409,0,0.003462336,0
1786125682.281762,0.000481,0.000158,-0.001716,0.018066,0.005371,-0.998535,0.998947,0.014084,-0.043658,-0.001175,0.576828,0.009748,-0.816808,-0.000019,1.624508,-5.002076,-0.205777,178.069292,-70.443877,-177.269313,9.251626,0.115054,-4.309951,0,0.003462449,0
1786125682.301782,0.000880,0.000291,-0.001716,0.017334,0.005127,-0.998047,0.998931,0.014189,-0.043971,-0.001184,0.578083,0.009809,-0.815919,-0.000018,1.636686,-5.037887,-0.207773,178.036404,-70.619751,-177.231536,9.261452,0.116017,-4.279832,0,0.003463726,0
1786125682.321756,0.000880,0.000425,-0.001583,0.017578,0.004883,-0.997803,0.998916,0.014293,-0.044283,-0.001191,0.579354,0.009843,-0.815017,-0.000016,1.648762,-5.073654,-0.209689,178.008043,-70.798198,-177.200444,9.271741,0.116660,-4.251125,0,0.003462735,0
1786125682.341763,0.000481,0.000558,-0.001317,0.017822,0.005127,-0.998291,0.998901,0.014395,-0.044595,-0.001197,0.580641,0.009902,-0.814099,-0.000016,1.660652,-5.109331,-0.211462,177.973290,-70.978965,-177.161072,9.282087,0.117489,-4.222712,0,0.003463381,0
1786125682.361782,0.000614,0.000824,-0.001716,0.017334,0.004883,-0.997803,0.998885,0.014497,-0.044905,-0.001206,0.581893,0.009941,-0.813204,-0.000017,1.672615,-5.144857,-0.213465,177.942334,-71.155018,-177.127237,9.291749,0.118233,-4.192879,0,0.003464323,0
1786125682.381793,0.000348,0.001090,-0.001716,0.018555,0.005127,-0.998291,0.998870,0.014599,-0.045213,-0.001214,0.583233,0.010007,-0.812243,-0.000020,1.684387,-5.180242,-0.215467,177.902956,-71.343516,-177.082890,9.302766,0.119197,-4.164762,0,0.003464765,0
1786125682.401749,0.000747,0.000824,-0.001849,0.018066,0.005371,-0.998291,0.998854,0.014703,-0.045523,-0.001223,0.584531,0.010104,-0.811308,-0.000020,1.696520,-5.215738,-0.217569,177.857539,-71.526369,-177.029701,9.312635,0.120499,-4.134193,0,0.003462711,0
1786125682.421794,-0.000052,0.000558,-0.001450,0.017822,0.004883,-0.997803,0.998839,0.014802,-0.045835,-0.001230,0.585808,0.010143,-0.810386,-0.000024,1.708057,-5.251431,-0.219441,177.823194,-71.706525,-176.992734,9.322341,0.121365,-4.104003,0,0.003464978,0
1786125682.441761,0.001280,0.000691,-0.001849,0.018066,0.005615,-0.998047,0.998823,0.014909,-0.046145,-0.001239,0.587100,0.010273,-0.809449,-0.000020,1.720577,-5.286978,-0.221567,177.770245,-71.888778,-176.929015,9.332321,0.122838,-4.074903,0,0.003463364,0
1786125682.461793,0.000747,0.000425,-0.001450,0.017578,0.004639,-0.998047,0.998807,0.015012,-0.046457,-0.001246,0.588352,0.010289,-0.808539,-0.000019,1.732532,-5.322760,-0.223452,177.741064,-72.065920,-176.898577,9.341564,0.123512,-4.045222,0,0.003464883,0
1786125682.481758,0.000614,0.000425,-0.001450,0.017822,0.004883,-0.997559,0.998791,0.015114,-0.046769,-0.001253,0.589620,0.010335,-0.807615,-0.000018,1.744465,-5.358525,-0.225350,177.703986,-72.245322,-176.857899,9.351192,0.124180,-4.015854,0,0.003463196,0
1786125682.501791,0.000614,0.000824,-0.001716,0.017822,0.005127,-0.997803,0.998774,0.015217,-0.047079,-0.001261,0.590887,0.010412,-0.806687,-0.000019,1.756489,-5.394033,-0.227408,177.658629,-72.424870,-176.806482,9.360628,0.125257,-3.986730,0,0.003464815,0
1786125682.521770,0.000880,0.000291,-0.001849,0.018066,0.005127,-0.998535,0.998758,0.015322,-0.047392,-0.001270,0.592164,0.010493,-0.805749,-0.000019,1.768656,-5.429849,-0.229557,177.611721,-72.605916,-176.753166,9.370168,0.126435,-3.958199,0,0.003463771,0
1786125682.541776,0.000614,0.000425,-0.001849,0.017822,0.004883,-0.997803,0.998742,0.015424,-0.047704,-0.001279,0.593423,0.010547,-0.804821,-0.000020,1.780627,-5.465603,-0.231707,177.569541,-72.784653,-176.706854,9.379245,0.127399,-3.927800,0,0.003464119,0
1786125682.561881,0.000880,0.000691,-0.001583,0.017090,0.005615,-0.998291,0.998725,0.015531,-0.048014,-0.001286,0.594629,0.010683,-0.803929,-0.000019,1.793022,-5.501117,-0.233733,177.509799,-72.955784,-176.636020,9.387631,0.128986,-3.898957,0,0.003468591,0
1786125682.581791,0.000747,0.000291,-0.001450,0.017334,0.004883,-0.998047,0.998708,0.015634,-0.048326,-0.001293,0.595846,0.010736,-0.803027,-0.000018,1.805105,-5.536937,-0.235676,177.467852,-73.128957,-176.589873,9.396482,0.130043,-3.870684,0,0.003463626,0
1786125682.601786,0.000481,0.001090,-0.001716,0.017334,0.004883,-0.998291,0.998692,0.015736,-0.048635,-0.001301,0.597066,0.010792,-0.802119,-0.000020,1.817053,-5.572293,-0.237764,177.423025,-73.302797,-176.540834,9.405175,0.130960,-3.842352,0,0.003463521,0
1786125682.621788,0.000348,0.000291,-0.001982,0.017334,0.005127,-0.998535,0.998675,0.015839,-0.048947,-0.001311,0.598278,0.010878,-0.801215,-0.000024,1.829016,-5.608077,-0.240035,177.369352,-73.475364,-176.480571,9.413724,0.132206,-3.814179,0,0.003463765,0
1786125682.641773,0.000614,0.001090,-0.001450,0.017578,0.005615,-0.997070,0.998658,0.015944,-0.049255,-0.001318,0.599511,0.011017,-0.800291,-0.000022,1.841221,-5.643376,-0.242003,177.302817,-73.651160,-176.402773,9.422460,0.133918,-3.784161,0,0.003463210,0
1786125682.661952,0.000081,0.000558,-0.001583,0.018066,0.005615,-0.998535,0.998641,0.016045,-0.049566,-0.001326,0.600771,0.011153,-0.799343,-0.000026,1.853090,-5.678989,-0.244062,177.233287,-73.830930,-176.322636,9.431434,0.135854,-3.756736,0,0.003471072,0
1786125682.681813,0.000747,0.001090,-0.001849,0.017822,0.004883,-0.997803,0.998624,0.016149,-0.049875,-0.001335,0.602015,0.011214,-0.798406,-0.000025,1.865173,-5.714351,-0.246252,177.182385,-74.008893,-176.266915,9.439836,0.137051,-3.726232,0,0.003463422,0
1786125682.701775,0.000348,0.000691,-0.001716,0.017822,0.005127,-0.998047,0.998607,0.016251,-0.050185,-0.001343,0.603253,0.011301,-0.797470,-0.000027,1.877095,-5.749921,-0.248388,177.123086,-74.186003,-176.200826,9.448253,0.138279,-3.697189,0,0.003461986,0
1786125682.721881,0.000880,0.000291,-0.001716,0.017578,0.005127,-0.998047,0.998589,0.016356,-0.050497,-0.001351,0.604468,0.011392,-0.796548,-0.000025,1.889349,-5.785711,-0.250542,177.063133,-74.360068,-176.133412,9.456296,0.139583,-3.667999,0,0.003467027,0
1786125682.741767,0.000880,0.000824,-0.001716,0.018066,0.004639,-0.998047,0.998572,0.016459,-0.050808,-0.001359,0.605718,0.011431,-0.795597,-0.000023,1.901428,-5.821252,-0.252674,177.014220,-74.539549,-176.081390,9.464891,0.140416,-3.639108,0,0.003461427,0
1786125682.761935,0.001147,0.000425,-0.001716,0.017334,0.005127,-0.998535,0.998554,0.016565,-0.051119,-0.001367,0.606911,0.011528,-0.794686,-0.000020,1.913867,-5.856957,-0.254843,176.951007,-74.710827,-176.010165,9.472375,0.141608,-3.609989,0,0.003469236,0
1786125682.781798,0.001013,0.000158,-0.001450,0.017578,0.004395,-0.998291,0.998536,0.016669,-0.051433,-0.001374,0.608116,0.011543,-0.793764,-0.000017,1.925996,-5.892888,-0.256848,176.907786,-74.884307,-175.965686,9.480381,0.142207,-3.581408,0,0.003462141,0
1786125682.802022,0.001147,0.001090,-0.001317,0.017334,0.004883,-0.998291,0.998519,0.016775,-0.051741,-0.001380,0.609310,0.011615,-0.792847,-0.000013,1.938353,-5.928238,-0.258782,176.848763,-75.056167,-175.900626,9.487974,0.143069,-3.552503,0,0.003472169,0
1786125682.821895,0.000747,0.000425,-0.001849,0.017578,0.005127,-0.997803,0.998501,0.016879,-0.052053,-0.001389,0.610513,0.011718,-0.791920,-0.000015,1.950565,-5.963942,-0.261048,176.777336,-75.229262,-175.821139,9.495813,0.144501,-3.523623,0,0.003464797,0
1786125682.841775,-0.000052,0.000824,-0.001183,0.017334,0.005127,-0.997803,0.998483,0.016980,-0.052362,-0.001395,0.611698,0.011813,-0.791003,-0.000019,1.962305,-5.999422,-0.262933,176.706280,-75.400064,-175.742763,9.503189,0.145954,-3.494771,0,0.003459508,0
1786125682.861787,0.000348,0.000158,-0.001849,0.017822,0.004883,-0.998535,0.998465,0.017082,-0.052675,-0.001404,0.612908,0.011891,-0.790065,-0.000023,1.974211,-6.035304,-0.265210,176.637308,-75.574751,-175.667940,9.511056,0.147290,-3.467211,0,0.003461133,0
1786125682.881771,0.000348,0.000691,-0.001849,0.018311,0.004883,-0.998535,0.998446,0.017183,-0.052986,-0.001413,0.614153,0.011972,-0.789096,-0.000026,1.986078,-6.070893,-0.267480,176.564622,-75.754681,-175.589135,9.519066,0.148563,-3.438032,0,0.003461192,0
1786125682.901797,0.000880,0.000558,-0.001716,0.017334,0.005615,-0.997803,0.998428,0.017289,-0.053297,-0.001421,0.615328,0.012137,-0.788178,-0.000024,1.998525,-6.106470,-0.269713,176.469817,-75.924225,-175.480842,9.525710,0.150552,-3.407347,0,0.003463006,0
1786125682.921798,0.000481,0.000425,-0.001716,0.018311,0.004883,-0.998535,0.998410,0.017391,-0.053608,-0.001429,0.616565,0.012219,-0.787209,-0.000026,2.010472,-6.142211,-0.271927,176.393420,-76.103379,-175.398082,9.533781,0.152093,-3.379769,0,0.003463303,0
1786125682.941783,0.000614,0.000691,-0.001716,0.018799,0.005127,-0.998535,0.998391,0.017494,-0.053919,-0.001438,0.617835,0.012330,-0.786211,-0.000026,2.022522,-6.177791,-0.274145,176.305007,-76.287283,-175.300794,9.541696,0.153634,-3.349814,0,0.003462871,0
1786125682.961803,0.000481,0.000957,-0.001450,0.018066,0.005615,-0.998291,0.998372,0.017598,-0.054228,-0.001444,0.619053,0.012495,-0.785250,-0.000026,2.034672,-6.213162,-0.276233,176.200515,-76.463715,-175.183052,9.548489,0.155736,-3.318773,0,0.003464037,0
1786125682.981771,0.000481,0.000824,-0.001849,0.017334,0.005615,-0.998047,0.998354,0.017703,-0.054537,-0.001453,0.620218,0.012663,-0.784328,-0.000027,2.046914,-6.248580,-0.278568,176.093636,-76.632415,-175.062780,9.554865,0.158099,-3.288984,0,0.003462679,0
1786125683.001870,0.000880,0.000425,-0.001716,0.017822,0.005371,-0.998291,0.998335,0.017808,-0.054848,-0.001462,0.621410,0.012805,-0.783381,-0.000026,2.059278,-6.284261,-0.280831,175.992055,-76.805430,-174.949694,9.562054,0.160173,-3.260990,0,0.003467248,0
1786125683.021785,0.000880,-0.000108,-0.001450,0.017822,0.004883,-0.998291,0.998316,0.017913,-0.055162,-0.001469,0.622594,0.012891,-0.782439,-0.000023,2.071506,-6.320293,-0.282945,175.905839,-76.977807,-174.856410,9.568835,0.161629,-3.232054,0,0.003462850,0
1786125683.041783,0.000481,0.000691,-0.002116,0.018066,0.004883,-0.998535,0.998297,0.018015,-0.055473,-0.001479,0.623798,0.012983,-0.781478,-0.000027,2.083530,-6.355858,-0.285432,175.811595,-77.153167,-174.755141,9.575808,0.163084,-3.203235,0,0.003463076,0
1786125683.061772,0.000614,0.000425,-0.001849,0.017822,0.005859,-0.998535,0.998277,0.018121,-0.055784,-0.001488,0.624980,0.013184,-0.780529,-0.000028,2.095888,-6.391493,-0.287808,175.681589,-77.324870,-174.609018,9.582272,0.165494,-3.173839,0,0.003462863,0
1786125683.081762,0.000880,0.000425,-0.001450,0.017090,0.004639,-0.997803,0.998258,0.018225,-0.056095,-0.001495,0.626111,0.013249,-0.779621,-0.000025,2.108126,-6.427216,-0.289935,175.597027,-77.490037,-174.519055,9.588034,0.166962,-3.144150,0,0.003462759,0
1786125683.101786,0.000747,0.000425,-0.001849,0.017578,0.005859,-0.998535,0.998238,0.018331,-0.056406,-0.001503,0.627271,0.013453,-0.778685,-0.000025,2.120590,-6.462842,-0.292329,175.460433,-77.658758,-174.366056,9.594686,0.169315,-3.117122,0,0.003464111,0
1786125683.121899,0.000614,0.000558,-0.001716,0.018311,0.004150,-0.997559,0.998219,0.018433,-0.056718,-0.001512,0.628480,0.013467,-0.777709,-0.000026,2.132482,-6.498550,-0.294596,175.381128,-77.836078,-174.285819,9.601640,0.170406,-3.087602,0,0.003468928,0
1786125683.141866,0.000747,0.000425,-0.001583,0.017090,0.004395,-0.998291,0.998199,0.018536,-0.057030,-0.001519,0.629603,0.013514,-0.776800,-0.000025,2.144607,-6.534286,-0.296815,175.294296,-78.000606,-174.195228,9.606857,0.171121,-3.058557,0,0.003466307,0
1786125683.161817,0.000880,0.000691,-0.001982,0.017822,0.004639,-0.998047,0.998179,0.018640,-0.057340,-0.001528,0.630774,0.013596,-0.775848,-0.000025,2.156841,-6.569859,-0.299267,175.189022,-78.172162,-174.083514,9.613495,0.172299,-3.030554,0,0.003463696,0
1786125683.181886,0.001013,0.001090,-0.001583,0.017090,0.005859,-0.998291,0.998160,0.018748,-0.057648,-0.001536,0.631895,0.013812,-0.774931,-0.000022,2.169493,-6.605093,-0.301529,175.036965,-78.335781,-173.913758,9.618843,0.174764,-3.001771,0,0.003466710,0
1786125683.201799,0.000348,0.000025,-0.001450,0.017578,0.005371,-0.998291,0.998140,0.018851,-0.057961,-0.001543,0.633037,0.013969,-0.773995,-0.000024,2.181603,-6.640990,-0.303727,174.898557,-78.502952,-173.762869,9.624991,0.177220,-2.974195,0,0.003462397,0
1786125683.221766,0.000880,0.000558,-0.001450,0.017578,0.005371,-0.998291,0.998120,0.018957,-0.058271,-0.001550,0.634180,0.014130,-0.773056,-0.000022,2.194020,-6.676581,-0.305921,174.755879,-78.670383,-173.607080,9.630758,0.179479,-2.945745,0,0.003461389,0
1786125683.241816,0.000081,0.000824,-0.001450,0.017578,0.005127,-0.998291,0.998100,0.019059,-0.058581,-0.001557,0.635323,0.014261,-0.772115,-0.000025,2.205924,-6.712037,-0.308109,174.617206,-78.838050,-173.458153,9.636441,0.181549,-2.917270,0,0.003464183,0
1786125683.261773,0.000481,0.000425,-0.001716,0.017334,0.005615,-0.998291,0.998079,0.019163,-0.058892,-0.001565,0.636443,0.014453,-0.771188,-0.000027,2.218219,-6.747671,-0.310484,174.453595,-79.002049,-173.279208,9.641779,0.184075,-2.888884,0,0.003462350,0
1786125683.281785,0.000348,0.000291,-0.001450,0.017822,0.004883,-0.998047,0.998059,0.019265,-0.059204,-0.001572,0.637592,0.014563,-0.770237,-0.000028,2.230207,-6.783455,-0.312691,174.314542,-79.171056,-173.131494,9.647659,0.186032,-2.860722,0,0.003463276,0
1786125683.301791,0.000880,0.000558,-0.001849,0.018066,0.005371,-0.997559,0.998038,0.019371,-0.059514,-0.001581,0.638756,0.014735,-0.769268,-0.000027,2.242630,-6.819045,-0.315142,174.145335,-79.342007,-172.948386,9.653390,0.188284,-2.831465,0,0.003463721,0
1786125683.321774,0.001147,0.000291,-0.001583,0.017822,0.005371,-0.998291,0.998017,0.019478,-0.059826,-0.001588,0.639898,0.014908,-0.768315,-0.000023,2.255212,-6.854786,-0.317455,173.973620,-79.509785,-172.762495,9.658593,0.190705,-2.803096,0,0.003463112,0
1786125683.341782,0.000348,0.000824,-0.001050,0.018066,0.005127,-0.997803,0.997997,0.019581,-0.060136,-0.001593,0.641058,0.015046,-0.767345,-0.000023,2.267227,-6.890258,-0.319447,173.806723,-79.680560,-172.584432,9.664128,0.192832,-2.773858,0,0.003463673,0
1786125683.361773,0.000614,0.000957,-0.002116,0.017578,0.004883,-0.997559,0.997976,0.019685,-0.060444,-0.001603,0.642184,0.015172,-0.766401,-0.000026,2.279450,-6.925634,-0.322056,173.640668,-79.846531,-172.408595,9.668923,0.194854,-2.744444,0,0.003463418,0
1786125683.381782,0.000348,0.000558,-0.001716,0.017578,0.004395,-0.998535,0.997955,0.019786,-0.060755,-0.001612,0.643303,0.015242,-0.765460,-0.000029,2.291384,-6.961285,-0.324438,173.493162,-80.012090,-172.255698,9.673959,0.196264,-2.717147,0,0.003463939,0
1786125683.401776,0.000614,0.000824,-0.001583,0.017090,0.005371,-0.998291,0.997934,0.019891,-0.061064,-0.001619,0.644389,0.015426,-0.764542,-0.000028,2.303734,-6.996698,-0.326776,173.296941,-80.171893,-172.044648,9.678436,0.198467,-2.688624,0,0.003463756,0
1786125683.421777,0.000880,0.000558,-0.001716,0.017578,0.005371,-0.998047,0.997913,0.019997,-0.061375,-0.001627,0.645502,0.015613,-0.763599,-0.000027,2.316213,-7.032272,-0.329201,173.089572,-80.335736,-171.822091,9.683623,0.201127,-2.660993,0,0.003463876,0
1786125683.441769,0.000614,0.001090,-0.001716,0.017578,0.005615,-0.998291,0.997892,0.020102,-0.061682,-0.001635,0.646615,0.015828,-0.762652,-0.000028,2.328601,-7.067520,-0.331629,172.861601,-80.499430,-171.576894,9.688389,0.204071,-2.632968,0,0.003463592,0
1786125683.461802,0.001280,0.000824,-0.001583,0.017578,0.004395,-0.998047,0.997871,0.020209,-0.061992,-0.001643,0.647724,0.015912,-0.761709,-0.000023,2.341082,-7.103015,-0.333958,172.687395,-80.663886,-171.395642,9.693046,0.205874,-2.604554,0,0.003465120,0
1786125683.481781,0.000747,0.000558,-0.001450,0.017822,0.004883,-0.998047,0.997849,0.020313,-0.062303,-0.001649,0.648844,0.016050,-0.760752,-0.000022,2.353351,-7.138633,-0.336237,172.478575,-80.829422,-171.175695,9.697889,0.207702,-2.576433,0,0.003463987,0
1786125683.501807,0.001147,0.000824,-0.002116,0.017822,0.004883,-0.998291,0.997828,0.020419,-0.062612,-0.001659,0.649962,0.016199,-0.759794,-0.000023,2.365900,-7.174081,-0.338901,172.255953,-80.994722,-170.941144,9.702453,0.209909,-2.548144,0,0.003465130,0
1786125683.521777,0.000481,0.000558,-0.001849,0.017334,0.005127,-0.998535,0.997806,0.020523,-0.062923,-0.001668,0.651043,0.016373,-0.758864,-0.000026,2.378149,-7.209657,-0.341437,172.016417,-81.154235,-170.687857,9.706426,0.212378,-2.519939,0,0.003463581,0
1786125683.541796,0.000481,0.001090,-0.001583,0.017334,0.004883,-0.997803,0.997784,0.020627,-0.063230,-0.001676,0.652127,0.016521,-0.757930,-0.000027,2.390326,-7.244951,-0.343808,171.780852,-81.314385,-170.440439,9.710680,0.214695,-2.491506,0,0.003464537,0
1786125683.561767,0.000880,0.000558,-0.001716,0.017822,0.004639,-0.998535,0.997762,0.020731,-0.063541,-0.001684,0.653233,0.016649,-0.756974,-0.000026,2.402655,-7.280575,-0.346264,171.543792,-81.478309,-170.193075,9.715330,0.216730,-2.464648,0,0.003463192,0
1786125683.581799,0.000880,0.000425,-0.001716,0.017334,0.006104,-0.998047,0.997740,0.020839,-0.063852,-0.001692,0.654304,0.016943,-0.756042,-0.000025,2.415360,-7.316153,-0.348779,171.218320,-81.635002,-169.843809,9.719036,0.220181,-2.435847,0,0.003464750,0
1786125683.601787,0.000614,0.000691,-0.001450,0.017822,0.005615,-0.997559,0.997718,0.020944,-0.064161,-0.001699,0.655405,0.017180,-0.755082,-0.000025,2.427751,-7.351632,-0.351122,170.903877,-81.796837,-169.510267,9.723472,0.223761,-2.407842,0,0.003464074,0
1786125683.621783,0.000614,0.000291,-0.001583,0.017334,0.004883,-0.998535,0.997696,0.021049,-0.064473,-0.001706,0.656468,0.017339,-0.754155,-0.000026,2.440028,-7.387377,-0.353544,170.623761,-81.953880,-169.217391,9.726964,0.226458,-2.380604,0,0.003463952,0
1786125683.641778,0.000614,0.000025,-0.001583,0.018555,0.004395,-0.998047,0.997673,0.021151,-0.064787,-0.001714,0.657604,0.017447,-0.753162,-0.000026,2.452112,-7.423337,-0.355954,170.345069,-82.122523,-168.930087,9.731977,0.228388,-2.352807,0,0.003463736,0
1786125683.661794,0.000747,0.000291,-0.001849,0.017578,0.004883,-0.998291,0.997651,0.021256,-0.065099,-0.001723,0.658677,0.017619,-0.752220,-0.000027,2.464476,-7.459079,-0.358543,170.031512,-82.280807,-168.602796,9.735006,0.230716,-2.323704,0,0.003464524,0
1786125683.681891,0.000747,0.000957,-0.001849,0.018311,0.004639,-0.997559,0.997629,0.021360,-0.065407,-0.001731,0.659799,0.017768,-0.751232,-0.000028,2.476735,-7.494473,-0.361108,169.706565,-82.446787,-168.265984,9.739434,0.233076,-2.295143,0,0.003468572,0
1786125683.701824,0.000747,0.000691,-0.001317,0.018066,0.005127,-0.997803,0.997606,0.021464,-0.065717,-0.001737,0.660899,0.017971,-0.750260,-0.000026,2.489086,-7.529991,-0.363398,169.342136,-82.608693,-167.885030,9.742960,0.235782,-2.266412,0,0.003464615,0
1786125683.721776,0.001147,0.000957,-0.001716,0.018066,0.005127,-0.997803,0.997583,0.021571,-0.066026,-0.001745,0.661997,0.018182,-0.749286,-0.000024,2.501701,-7.565345,-0.365919,168.955865,-82.770082,-167.481521,9.746570,0.238832,-2.237859,0,0.003462446,0
1786125683.741799,0.000481,0.000957,-0.001849,0.018066,0.005371,-0.998535,0.997560,0.021676,-0.066334,-0.001754,0.663091,0.018422,-0.748312,-0.000027,2.514004,-7.600677,-0.368532,168.531979,-82.930165,-167.038578,9.750085,0.242226,-2.210087,0,0.003463830,0
1786125683.761802,0.000747,0.000025,-0.001450,0.017822,0.005371,-0.998047,0.997537,0.021781,-0.066647,-0.001761,0.664159,0.018664,-0.747358,-0.000026,2.526455,-7.636545,-0.370948,168.096079,-83.086268,-166.583067,9.753230,0.245693,-2.181345,0,0.003464011,0
1786125683.781921,0.001147,0.000691,-0.001583,0.017334,0.005615,-0.998535,0.997514,0.021889,-0.066956,-0.001768,0.665198,0.018940,-0.746427,-0.000023,2.539235,-7.671999,-0.373443,167.627558,-83.237228,-166.092039,9.756011,0.249479,-2.153886,0,0.003469104,0
1786125683.801849,0.001147,0.001090,-0.001849,0.017578,0.005127,-0.998047,0.997491,0.021997,-0.067264,-0.001777,0.666252,0.019166,-0.745481,-0.000022,2.551917,-7.707257,-0.376074,167.162729,-83.390953,-165.608885,9.759340,0.252982,-2.126224,0,0.003464785,0
1786125683.822029,0.000614,0.000558,-0.001716,0.017822,0.005859,-0.998047,0.997468,0.022103,-0.067574,-0.001785,0.667314,0.019473,-0.744522,-0.000024,2.564432,-7.742774,-0.378669,166.616680,-83.544082,-165.038184,9.762636,0.257043,-2.098791,0,0.003472318,0
1786125683.841801,0.000747,0.000957,-0.001583,0.017578,0.004639,-0.998535,0.997445,0.022207,-0.067882,-0.001793,0.668359,0.019648,-0.743580,-0.000024,2.576772,-7.778146,-0.381151,166.140115,-83.696776,-164.547538,9.765384,0.260239,-2.071423,0,0.003460569,0
1786125683.861785,0.000880,0.000957,-0.002116,0.017334,0.004883,-0.998535,0.997421,0.022313,-0.068190,-0.001803,0.669385,0.019861,-0.742650,-0.000026,2.589304,-7.813479,-0.383958,165.618060,-83.845653,-164.008500,9.768042,0.263280,-2.044036,0,0.003460755,0
1786125683.881916,0.000747,0.001090,-0.001583,0.018066,0.005371,-0.998047,0.997398,0.022419,-0.068498,-0.001810,0.670455,0.020127,-0.741677,-0.000026,2.601776,-7.848731,-0.386469,165.016051,-83.999619,-163.384995,9.771544,0.266893,-2.016580,0,0.003467163,0
1786125683.901846,0.000481,0.000025,-0.001982,0.017822,0.004883,-0.997803,0.997374,0.022522,-0.068811,-0.001820,0.671498,0.020346,-0.740727,-0.000030,2.614050,-7.884609,-0.389234,164.423719,-84.150048,-162.775339,9.774067,0.270397,-1.988421,0,0.003463417,0
1786125683.921790,0.000348,0.000691,-0.001849,0.017090,0.004639,-0.998291,0.997350,0.022625,-0.069121,-0.001828,0.672497,0.020542,-0.739814,-0.000033,2.626238,-7.920110,-0.391913,163.836169,-84.293963,-162.172204,9.776007,0.273478,-1.961307,0,0.003461212,0
1786125683.941805,0.000614,0.000291,-0.001583,0.017822,0.004883,-0.998535,0.997326,0.022729,-0.069432,-0.001836,0.673535,0.020770,-0.738864,-0.000033,2.638565,-7.955844,-0.394457,163.178327,-84.442433,-161.495990,9.779213,0.276705,-1.935280,0,0.003462543,0
1786125683.961792,0.001013,0.000558,-0.001317,0.017822,0.005127,-0.998779,0.997302,0.022836,-0.069743,-0.001842,0.674570,0.021029,-0.737912,-0.000028,2.651154,-7.991414,-0.396854,162.462860,-84.589306,-160.759236,9.781713,0.280306,-1.908080,0,0.003462390,0
1786125683.981816,0.000614,0.000558,-0.001716,0.017334,0.005615,-0.998047,0.997278,0.022942,-0.070052,-0.001850,0.675571,0.021349,-0.736985,-0.000030,2.663688,-8.026929,-0.399510,161.671328,-84.728966,-159.941934,9.783626,0.284672,-1.879973,0,0.003463836,0
1786125684.001792,0.000481,0.000558,-0.001716,0.017822,0.004639,-0.997803,0.997253,0.023045,-0.070363,-0.001858,0.676600,0.021564,-0.736035,-0.000031,2.675913,-8.062519,-0.402140,160.904630,-84.874350,-159.158029,9.786340,0.288369,-1.853193,0,0.003462861,0
1786125684.021785,0.000481,0.000691,-0.001982,0.017822,0.005615,-0.998291,0.997229,0.023150,-0.070672,-0.001868,0.677625,0.021896,-0.735082,-0.000034,2.688366,-8.097959,-0.404957,159.996118,-85.015152,-158.222981,9.788596,0.292710,-1.826360,0,0.003462908,0
1786125684.041809,0.000481,0.000824,-0.001982,0.017822,0.004639,-0.998047,0.997205,0.023253,-0.070981,-0.001877,0.678647,0.022125,-0.734131,-0.000037,2.700622,-8.133387,-0.407750,159.122911,-85.157436,-157.331505,9.790722,0.296616,-1.798875,0,0.003464204,0
1786125684.061778,0.000614,0.000558,-0.001317,0.018066,0.004639,-0.998047,0.997180,0.023357,-0.071292,-0.001883,0.679679,0.022355,-0.733169,-0.000034,2.712889,-8.168989,-0.410170,158.192498,-85.300075,-156.382304,9.793051,0.300006,-1.771713,0,0.003462841,0
1786125684.081778,0.000081,0.000691,-0.001583,0.017090,0.005127,-0.998535,0.997156,0.023460,-0.071601,-0.001891,0.680648,0.022646,-0.732261,-0.000037,2.725044,-8.204453,-0.412773,157.191961,-85.430565,-155.358454,9.794106,0.304040,-1.744682,0,0.003463147,0
1786125684.101816,0.000614,0.000691,-0.001716,0.018311,0.005371,-0.998779,0.997131,0.023565,-0.071910,-0.001899,0.681685,0.022972,-0.731285,-0.000037,2.737486,-8.239923,-0.415455,156.043417,-85.568516,-154.183540,9.797131,0.308656,-1.719073,0,0.003465025,0
1786125684.121792,0.000348,0.000824,-0.001716,0.017822,0.005615,-0.998047,0.997106,0.023669,-0.072219,-0.001907,0.682690,0.023331,-0.730335,-0.000038,2.749863,-8.275288,-0.418154,154.816828,-85.699016,-152.928066,9.798497,0.313722,-1.690578,0,0.003463771,0
1786125684.141855,0.000880,0.000824,-0.001450,0.018066,0.004639,-0.998535,0.997081,0.023774,-0.072528,-0.001914,0.683707,0.023588,-0.729375,-0.000035,2.762312,-8.310729,-0.420676,153.604111,-85.832882,-151.694322,9.800443,0.317965,-1.664160,0,0.003466553,0
1786125684.161793,0.000747,0.000824,-0.001716,0.018066,0.005371,-0.998535,0.997056,0.023880,-0.072837,-0.001922,0.684718,0.023933,-0.728415,-0.000034,2.774862,-8.346113,-0.423381,152.224685,-85.960783,-150.286903,9.802134,0.322609,-1.636911,0,0.003463278,0
1786125684.181795,0.001147,0.000691,-0.001716,0.017090,0.004883,-0.998291,0.997031,0.023987,-0.073146,-0.001930,0.685666,0.024235,-0.727513,-0.000032,2.787611,-8.381584,-0.426093,150.872075,-86.079556,-148.909636,9.802722,0.327218,-1.609554,0,0.003463583,0
1786125684.201943,0.000081,0.000691,-0.002116,0.018066,0.005371,-0.998291,0.997006,0.024090,-0.073455,-0.001940,0.686668,0.024593,-0.726555,-0.000038,2.799825,-8.417030,-0.429049,149.298720,-86.200761,-147.307843,9.805107,0.332269,-1.584055,0,0.003470016,0
1786125684.221836,0.000481,0.000025,-0.001716,0.018066,0.005615,-0.998535,0.996980,0.024195,-0.073768,-0.001948,0.687659,0.024985,-0.725603,-0.000039,2.812289,-8.452852,-0.431808,147.607150,-86.316444,-145.584684,9.806498,0.337818,-1.557444,0,0.003463982,0
1786125684.241825,0.000348,0.000558,-0.001716,0.017334,0.004883,-0.997803,0.996954,0.024298,-0.074078,-0.001957,0.688608,0.025303,-0.724692,-0.000040,2.824581,-8.488400,-0.434545,145.942382,-86.426557,-143.894304,9.807063,0.342855,-1.529877,0,0.003463550,0
1786125684.261786,0.000481,0.000425,-0.001583,0.017578,0.004639,-0.998535,0.996929,0.024402,-0.074389,-0.001964,0.689566,0.025600,-0.723770,-0.000040,2.836878,-8.524047,-0.437207,144.181158,-86.535709,-142.109011,9.808500,0.347364,-1.505015,0,0.003462014,0
1786125684.281794,0.000747,0.000291,-0.001849,0.017334,0.005127,-0.997559,0.996903,0.024508,-0.074700,-0.001973,0.690504,0.025963,-0.722863,-0.000039,2.849468,-8.559726,-0.440052,142.266135,-86.635864,-140.164529,9.809399,0.352393,-1.478177,0,0.003462893,0
1786125684.301799,0.001013,0.000425,-0.001583,0.018066,0.005371,-0.998535,0.996877,0.024615,-0.075010,-0.001980,0.691480,0.026359,-0.721915,-0.000036,2.862194,-8.595334,-0.442748,140.133570,-86.735233,-137.999696,9.811155,0.357976,-1.453730,0,0.003463392,0
1786125684.321784,0.000747,0.000558,-0.001583,0.017822,0.005127,-0.998291,0.996851,0.024720,-0.075320,-0.001987,0.692438,0.026733,-0.720982,-0.000035,2.874739,-8.630875,-0.445442,137.921250,-86.828824,-135.756960,9.811896,0.363544,-1.426997,0,0.003462941,0
1786125684.341801,0.000747,0.000824,-0.001849,0.017578,0.004883,-0.998291,0.996825,0.024826,-0.075629,-0.001996,0.693380,0.027091,-0.720063,-0.000035,2.887280,-8.666266,-0.448287,135.625062,-86.916437,-133.431825,9.812551,0.368918,-1.400926,0,0.003463929,0
1786125684.361791,0.000880,0.000957,-0.001982,0.017090,0.005371,-0.997803,0.996799,0.024933,-0.075937,-0.002005,0.694288,0.027515,-0.719171,-0.000036,2.900040,-8.701533,-0.451232,133.200976,-86.991587,-130.973465,9.812881,0.374802,-1.374812,0,0.003463569,0
1786125684.381787,0.000481,0.000824,-0.001583,0.017090,0.005371,-0.998779,0.996773,0.025038,-0.076245,-0.002013,0.695190,0.027940,-0.718283,-0.000036,2.912543,-8.736887,-0.453957,130.668481,-87.060318,-128.406562,9.813566,0.380984,-1.351069,0,0.003463496,0
1786125684.401799,0.001147,0.000291,-0.001716,0.018066,0.005371,-0.998291,0.996746,0.025146,-0.076556,-0.002021,0.696140,0.028377,-0.717345,-0.000033,2.925384,-8.772560,-0.456774,127.885948,-87.127175,-125.588453,9.815148,0.387299,-1.326104,0,0.003464177,0
1786125684.421809,0.000481,0.000957,-0.001583,0.017578,0.005371,-0.998047,0.996720,0.025251,-0.076864,-0.002028,0.697062,0.028818,-0.716432,-0.000034,2.937865,-8.807845,-0.459507,125.042941,-87.183884,-122.709769,9.815245,0.393721,-1.299793,0,0.003464563,0
1786125684.441799,0.000481,0.000824,-0.001849,0.017578,0.004883,-0.998535,0.996693,0.025355,-0.077173,-0.002037,0.697977,0.029216,-0.715524,-0.000036,2.950282,-8.843228,-0.462391,122.140228,-87.235734,-119.774997,9.815723,0.399843,-1.275121,0,0.003464040,0
1786125684.461833,0.000614,0.000691,-0.002116,0.017334,0.005859,-0.998535,0.996667,0.025462,-0.077481,-0.002047,0.698870,0.029735,-0.714630,-0.000039,2.963007,-8.878611,-0.465473,119.096103,-87.270036,-116.688989,9.815908,0.406873,-1.250093,0,0.003465493,0
1786125684.481809,0.001280,0.000558,-0.001583,0.017578,0.005127,-0.997314,0.996640,0.025571,-0.077791,-0.002054,0.699773,0.030183,-0.713727,-0.000034,2.975916,-8.914136,-0.468235,116.009810,-87.302840,-113.566073,9.816436,0.413706,-1.224422,0,0.003464161,0
1786125684.501896,0.000747,0.000425,-0.001583,0.017578,0.005127,-0.998047,0.996613,0.025677,-0.078101,-0.002062,0.700669,0.030636,-0.712829,-0.000034,2.988528,-8.949735,-0.471009,112.867545,-87.326486,-110.387040,9.816701,0.420310,-1.200405,0,0.003467854,0
1786125684.521808,0.000614,0.000824,-0.001450,0.017334,0.005371,-0.998291,0.996586,0.025782,-0.078410,-0.002069,0.701547,0.031124,-0.711943,-0.000033,3.001115,-8.985088,-0.473712,109.713568,-87.338348,-107.193441,9.816648,0.427272,-1.175953,0,0.003463144,0
1786125684.541806,0.000614,0.000425,-0.001716,0.017090,0.004883,-0.998047,0.996558,0.025887,-0.078720,-0.002077,0.702403,0.031570,-0.711079,-0.000034,3.013657,-9.020687,-0.476577,106.628203,-87.344170,-104.071948,9.816495,0.434073,-1.151636,0,0.003463315,0
1786125684.561798,0.000614,0.000425,-0.001982,0.018066,0.005127,-0.997803,0.996531,0.025993,-0.079031,-0.002086,0.703309,0.032055,-0.710161,-0.000036,3.026213,-9.056280,-0.479602,103.349555,-87.340865,-100.754253,9.817515,0.441065,-1.127801,0,0.003463170,0
1786125684.581798,0.000348,0.000425,-0.001583,0.016602,0.005371,-0.997803,0.996504,0.026098,-0.079341,-0.002094,0.704125,0.032576,-0.709328,-0.000038,3.038722,-9.091839,-0.482425,100.382237,-87.323675,-97.744750,9.816027,0.448508,-1.102807,0,0.003463393,0
1786125684.601791,0.000880,0.000824,-0.001716,0.017578,0.004639,-0.998291,0.996476,0.026203,-0.079649,-0.002102,0.704995,0.033028,-0.708443,-0.000037,3.051353,-9.127230,-0.485290,97.291392,-87.306014,-94.617123,9.816866,0.455538,-1.080687,0,0.003463285,0
1786125684.621798,0.000747,0.000425,-0.001716,0.017090,0.005371,-0.997803,0.996449,0.026310,-0.079960,-0.002110,0.705826,0.033574,-0.707589,-0.000036,3.064082,-9.162793,-0.488201,94.361664,-87.272604,-91.643133,9.816234,0.463064,-1.056245,0,0.003463758,0
1786125684.641815,0.000747,0.000158,-0.001716,0.017334,0.005371,-0.997803,0.996421,0.026417,-0.080271,-0.002118,0.706663,0.034130,-0.706727,-0.000036,3.076803,-9.198511,-0.491127,91.488221,-87.231279,-88.724579,9.816207,0.471155,-1.033279,0,0.003464581,0
1786125684.661807,0.000747,0.000425,-0.001716,0.017578,0.005127,-0.998535,0.996393,0.026523,-0.080581,-0.002126,0.707509,0.034670,-0.705854,-0.000036,3.089468,-9.234096,-0.494044,88.673631,-87.184371,-85.866215,9.816112,0.479170,-1.010765,0,0.003464131,0
1786125684.681916,0.000880,0.000425,-0.001583,0.017822,0.005127,-0.997803,0.996365,0.026629,-0.080892,-0.002133,0.708362,0.035221,-0.704970,-0.000035,3.102186,-9.269689,-0.496889,85.929657,-87.129805,-83.077367,9.815965,0.487199,-0.986572,0,0.003468773,0
1786125684.701838,0.000348,0.000824,-0.001716,0.017578,0.005859,-0.998047,0.996337,0.026735,-0.081200,-0.002141,0.709196,0.035864,-0.704099,-0.000037,3.114765,-9.304998,-0.499830,83.372457,-87.061494,-80.468166,9.815256,0.496176,-0.963022,0,0.003464281,0
1786125684.721961,0.000348,0.000691,-0.001583,0.018066,0.005371,-0.999023,0.996309,0.026839,-0.081509,-0.002149,0.710048,0.036464,-0.703208,-0.000038,3.127218,-9.340425,-0.502688,80.863478,-86.990456,-77.910628,9.815152,0.505224,-0.940848,0,0.003469494,0
1786125684.741860,0.000081,0.000957,-0.001583,0.018066,0.005127,-0.998047,0.996281,0.026941,-0.081816,-0.002156,0.710896,0.037049,-0.702321,-0.000041,3.139477,-9.375713,-0.505538,78.481777,-86.915030,-75.481668,9.814521,0.513949,-0.916078,0,0.003463866,0
1786125684.761846,0.000747,0.001090,-0.001849,0.017822,0.004883,-0.998291,0.996253,0.027047,-0.082123,-0.002165,0.711723,0.037627,-0.701451,-0.000041,3.152117,-9.410926,-0.508541,76.269731,-86.835937,-73.222621,9.813587,0.522557,-0.892665,0,0.003463293,0
1786125684.781840,0.000481,0.000957,-0.001716,0.017822,0.005127,-0.997559,0.996224,0.027152,-0.082431,-0.002173,0.712543,0.038245,-0.700586,-0.000042,3.164641,-9.446203,-0.511487,74.205150,-86.749487,-71.107947,9.812849,0.531456,-0.868858,0,0.003463268,0
1786125684.802225,0.000348,0.000558,-0.001317,0.018066,0.005127,-0.997803,0.996196,0.027256,-0.082741,-0.002179,0.713366,0.038874,-0.699713,-0.000041,3.177044,-9.481725,-0.514219,72.241173,-86.657900,-69.092853,9.812269,0.540632,-0.846289,0,0.003479884,0
1786125684.821869,0.000880,0.000691,-0.001982,0.017578,0.005127,-0.998047,0.996167,0.027362,-0.083049,-0.002188,0.714152,0.039525,-0.698874,-0.000041,3.189849,-9.517139,-0.517346,70.486861,-86.562779,-67.285620,9.810872,0.550159,-0.823487,0,0.003460817,0
1786125684.841839,0.000880,0.000558,-0.001583,0.017090,0.005371,-0.998535,0.996138,0.027470,-0.083359,-0.002196,0.714901,0.040217,-0.698068,-0.000039,3.202695,-9.552617,-0.520266,68.937378,-86.463898,-65.679755,9.809424,0.560060,-0.801977,0,0.003460354,0
1786125684.861815,0.000747,0.000691,-0.001450,0.017578,0.005371,-0.997314,0.996110,0.027576,-0.083668,-0.002202,0.715670,0.040921,-0.697239,-0.000037,3.215427,-9.588030,-0.523108,67.430113,-86.360129,-64.115178,9.808883,0.570289,-0.779737,0,0.003460265,0
1786125684.881801,0.000747,0.000291,-0.001583,0.018311,0.005859,-0.997803,0.996081,0.027683,-0.083978,-0.002210,0.716465,0.041693,-0.696376,-0.000036,3.228224,-9.623652,-0.526056,65.981578,-86.246703,-62.603898,9.808503,0.581263,-0.758721,0,0.003460603,0
1786125684.901957,0.000481,0.000824,-0.001583,0.017090,0.004639,-0.997803,0.996052,0.027788,-0.084287,-0.002217,0.717191,0.042348,-0.695588,-0.000037,3.240724,-9.659016,-0.528970,64.708429,-86.144506,-61.277530,9.806027,0.591519,-0.736264,0,0.003468089,0
1786125684.921934,0.000747,0.000691,-0.002116,0.017578,0.004883,-0.998535,0.996022,0.027894,-0.084595,-0.002227,0.717933,0.043051,-0.694780,-0.000039,3.253450,-9.694433,-0.532208,63.494237,-86.035597,-60.006443,9.805350,0.601699,-0.716599,0,0.003466136,0
1786125684.942264,0.000747,0.000691,-0.001849,0.017822,0.004883,-0.997803,0.995993,0.028000,-0.084904,-0.002236,0.718680,0.043769,-0.693962,-0.000040,3.266141,-9.729862,-0.535297,62.340552,-85.923337,-58.794423,9.804324,0.612197,-0.694988,0,0.003479726,0
1786125684.961864,0.000348,0.000558,-0.001849,0.017334,0.006104,-0.999023,0.995964,0.028106,-0.085213,-0.002245,0.719383,0.044637,-0.693178,-0.000042,3.278853,-9.765284,-0.538441,61.416405,-85.802078,-57.799980,9.802489,0.624167,-0.675175,0,0.003458789,0
1786125684.981836,0.000081,0.000691,-0.001716,0.017334,0.004639,-0.998047,0.995934,0.028208,-0.085522,-0.002253,0.720081,0.045357,-0.692406,-0.000045,3.291146,-9.800720,-0.541467,60.473655,-85.690520,-56.798874,9.800990,0.635563,-0.654339,0,0.003458909,0
1786125685.001829,0.000880,-0.000108,-0.001583,0.017578,0.005615,-0.998535,0.995904,0.028316,-0.085835,-0.002260,0.720772,0.046207,-0.691630,-0.000043,3.304049,-9.836563,-0.544477,59.656670,-85.569406,-55.912581,9.799824,0.647356,-0.635277,0,0.003459889,0
1786125685.021816,0.000348,0.000824,-0.001982,0.017578,0.005371,-0.997803,0.995875,0.028420,-0.086143,-0.002270,0.721461,0.047048,-0.690855,-0.000046,3.316645,-9.871873,-0.547689,58.887064,-85.447803,-55.074826,9.798232,0.659784,-0.614802,0,0.003460367,0
1786125685.041816,0.000614,0.000691,-0.002116,0.017822,0.004883,-0.998047,0.995845,0.028526,-0.086451,-0.002280,0.722151,0.047856,-0.690078,-0.000048,3.329312,-9.907286,-0.550974,58.135479,-85.327480,-54.257700,9.796845,0.671894,-0.595600,0,0.003461308,0
1786125685.061815,0.000614,0.001090,-0.001583,0.017578,0.005615,-0.998047,0.995815,0.028632,-0.086758,-0.002287,0.722816,0.048761,-0.689318,-0.000046,3.342071,-9.942441,-0.553969,57.511858,-85.201936,-53.560302,9.794946,0.684628,-0.575972,0,0.003461944,0
1786125685.081807,0.000614,0.000291,-0.001716,0.017578,0.004639,-0.998047,0.995785,0.028737,-0.087069,-0.002295,0.723467,0.049578,-0.688576,-0.000046,3.354684,-9.978102,-0.557047,56.897481,-85.083123,-52.879419,9.793176,0.697115,-0.557260,0,0.003462146,0
1786125685.101898,0.000747,0.000957,-0.001583,0.017822,0.005371,-0.997803,0.995755,0.028844,-0.087376,-0.002302,0.724122,0.050495,-0.687821,-0.000044,3.367474,-10.013349,-0.560053,56.358052,-84.956415,-52.265184,9.791693,0.710038,-0.538421,0,0.003466490,0
1786125685.121838,0.000880,0.000558,-0.001583,0.017334,0.004639,-0.998535,0.995725,0.028950,-0.087686,-0.002310,0.724735,0.051353,-0.687111,-0.000041,3.380250,-10.048855,-0.563063,55.874822,-84.837204,-51.711931,9.789324,0.722943,-0.520650,0,0.003463367,0
1786125685.141904,0.000614,0.001224,-0.001716,0.017578,0.005615,-0.998047,0.995695,0.029057,-0.087991,-0.002318,0.725351,0.052338,-0.686387,-0.000041,3.393042,-10.083924,-0.566164,55.476734,-84.708365,-51.233671,9.787744,0.736720,-0.502584,0,0.003466359,0
1786125685.161849,0.000747,0.001090,-0.001583,0.017334,0.005371,-0.998047,0.995664,0.029163,-0.088298,-0.002325,0.725938,0.053318,-0.685690,-0.000040,3.405875,-10.119081,-0.569195,55.133518,-84.582396,-50.810601,9.785493,0.751090,-0.485098,0,0.003463430,0
1786125685.181810,0.000747,0.000291,-0.001450,0.017334,0.004883,-0.998535,0.995634,0.029270,-0.088609,-0.002331,0.726507,0.054263,-0.685013,-0.000038,3.418621,-10.154726,-0.572169,54.814161,-84.460362,-50.414204,9.783489,0.765110,-0.469010,0,0.003461953,0
1786125685.201815,0.000348,0.000957,-0.001716,0.017578,0.004883,-0.997803,0.995603,0.029374,-0.088916,-0.002340,0.727080,0.055227,-0.684327,-0.000040,3.431154,-10.189984,-0.575282,54.514527,-84.335973,-50.036232,9.781727,0.779194,-0.451930,0,0.003462701,0
1786125685.221988,0.000747,0.000425,-0.001716,0.018799,0.005371,-0.998047,0.995572,0.029480,-0.089226,-0.002347,0.727698,0.056265,-0.683586,-0.000040,3.443938,-10.225540,-0.578423,54.204422,-84.201756,-49.641539,9.780873,0.794085,-0.435939,0,0.003470418,0
1786125685.241858,0.000614,0.000425,-0.002249,0.017090,0.005615,-0.998291,0.995541,0.029587,-0.089535,-0.002358,0.728206,0.057365,-0.682953,-0.000044,3.456843,-10.261032,-0.581907,54.078349,-84.074182,-49.426248,9.776862,0.809919,-0.418550,0,0.003463328,0
1786125685.261829,0.000614,0.000558,-0.001716,0.018799,0.005127,-0.997803,0.995510,0.029692,-0.089845,-0.002366,0.728792,0.058420,-0.682238,-0.000044,3.469520,-10.296523,-0.585053,53.839638,-83.941536,-49.101519,9.776345,0.825647,-0.403521,0,0.003462266,0
1786125685.281818,0.000747,0.000558,-0.001849,0.017090,0.005371,-0.997559,0.995479,0.029799,-0.090154,-0.002375,0.729268,0.059538,-0.681633,-0.000044,3.482429,-10.331964,-0.588309,53.772111,-83.815903,-48.942976,9.772262,0.841673,-0.386539,0,0.003462248,0
1786125685.301853,0.000215,0.000691,-0.001450,0.017334,0.004639,-0.998779,0.995448,0.029903,-0.090463,-0.002382,0.729743,0.060588,-0.681032,-0.000045,3.494859,-10.367386,-0.591312,53.679091,-83.694745,-48.764420,9.770217,0.857389,-0.374100,0,0.003464198,0
1786125685.321807,0.000614,0.001090,-0.001982,0.017822,0.005127,-0.997803,0.995417,0.030008,-0.090769,-0.002391,0.730228,0.061719,-0.680410,-0.000046,3.507630,-10.402541,-0.594629,53.615002,-83.566865,-48.608214,9.768435,0.873585,-0.359456,0,0.003462216,0
1786125685.341811,0.000747,0.000558,-0.001317,0.018311,0.004395,-0.998047,0.995385,0.030113,-0.091079,-0.002397,0.730719,0.062786,-0.679785,-0.000042,3.520268,-10.438072,-0.597559,53.515988,-83.442773,-48.421923,9.766510,0.889529,-0.345927,0,0.003462866,0
1786125685.361818,0.000348,0.000691,-0.001716,0.017822,0.005371,-0.998047,0.995354,0.030218,-0.091387,-0.002405,0.731162,0.063989,-0.679196,-0.000044,3.532912,-10.473450,-0.600759,53.534398,-83.314083,-48.342463,9.763610,0.906423,-0.331814,0,0.003463457,0
1786125685.381782,0.001147,0.000425,-0.001849,0.017822,0.005371,-0.997559,0.995322,0.030327,-0.091697,-0.002413,0.731583,0.065221,-0.678625,-0.000042,3.546034,-10.508974,-0.604054,53.588552,-83.185799,-48.295922,9.761069,0.924275,-0.318673,0,0.003462064,0
1786125685.401813,0.000747,0.000291,-0.001716,0.017822,0.005127,-0.998535,0.995290,0.030434,-0.092007,-0.002421,0.731983,0.066447,-0.678075,-0.000042,3.558881,-10.544590,-0.607277,53.662165,-83.059989,-48.269537,9.758491,0.942196,-0.307590,0,0.003463881,0
1786125685.421844,0.000614,0.000425,-0.001716,0.017822,0.004639,-0.998779,0.995258,0.030539,-0.092317,-0.002429,0.732364,0.067642,-0.677545,-0.000042,3.571576,-10.580155,-0.610490,53.740527,-82.938016,-48.250466,9.755909,0.959820,-0.296338,0,0.003465274,0
1786125685.441841,0.000747,0.000691,-0.002116,0.018066,0.005371,-0.997803,0.995226,0.030646,-0.092626,-0.002439,0.732735,0.068946,-0.677012,-0.000044,3.584500,-10.615518,-0.613953,53.870222,-82.809445,-48.274003,9.753597,0.978305,-0.284360,0,0.003464855,0
1786125685.461840,0.000481,0.000558,-0.001982,0.017578,0.004883,-0.998047,0.995194,0.030751,-0.092935,-0.002448,0.733059,0.070220,-0.676531,-0.000047,3.597210,-10.650977,-0.617342,54.033571,-82.687718,-48.333608,9.750381,0.997042,-0.273949,0,0.003464630,0
1786125685.481811,0.000614,0.000291,-0.001716,0.017090,0.005371,-0.998291,0.995162,0.030857,-0.093245,-0.002456,0.733329,0.071573,-0.676096,-0.000046,3.610081,-10.686562,-0.620614,54.275824,-82.566207,-48.465423,9.747269,1.016274,-0.264936,0,0.003463271,0
1786125685.501851,0.001013,0.001357,-0.001716,0.017578,0.004639,-0.997803,0.995130,0.030965,-0.093550,-0.002464,0.733612,0.072868,-0.675651,-0.000043,3.623033,-10.721585,-0.623829,54.475502,-82.447344,-48.559140,9.745072,1.035390,-0.256480,0,0.003465186,0
1786125685.521823,0.000614,0.000824,-0.001716,0.017822,0.005615,-0.997559,0.995098,0.031071,-0.093858,-0.002472,0.733874,0.074291,-0.675211,-0.000043,3.635912,-10.756863,-0.627098,54.736625,-82.321409,-48.704165,9.742669,1.055358,-0.248204,0,0.003463700,0
1786125685.541816,0.000614,0.000691,-0.001849,0.017822,0.005127,-0.998047,0.995065,0.031177,-0.094166,-0.002481,0.734110,0.075683,-0.674799,-0.000044,3.648733,-10.792236,-0.630443,55.004476,-82.199863,-48.858372,9.739810,1.075750,-0.241170,0,0.003463531,0
1786125685.561819,0.000614,0.000291,-0.001450,0.018311,0.004639,-0.997559,0.995032,0.031282,-0.094477,-0.002487,0.734346,0.077039,-0.674389,-0.000043,3.661413,-10.827886,-0.633559,55.251239,-82.080823,-48.994280,9.737509,1.095603,-0.233944,0,0.003463798,0
1786125685.581820,0.000614,0.000691,-0.001583,0.018066,0.005371,-0.997803,0.995000,0.031388,-0.094785,-0.002495,0.734541,0.078502,-0.674008,-0.000042,3.674242,-10.863257,-0.636771,55.567260,-81.958303,-49.190779,9.734468,1.116229,-0.227308,0,0.003463883,0
1786125685.601825,0.000747,0.000291,-0.001716,0.017334,0.005127,-0.998047,0.994967,0.031495,-0.095095,-0.002502,0.734667,0.079967,-0.673699,-0.000042,3.687169,-10.898852,-0.640084,55.940201,-81.842358,-49.444038,9.730826,1.137379,-0.222023,0,0.003464155,0
1786125685.621813,0.000614,0.000558,-0.001716,0.018066,0.005371,-0.998291,0.994934,0.031601,-0.095404,-0.002510,0.734802,0.081475,-0.673371,-0.000042,3.700023,-10.934293,-0.643395,56.308050,-81.722042,-49.688782,9.728756,1.158930,-0.218590,0,0.003463615,0
1786125685.641808,0.000614,0.000691,-0.001849,0.017578,0.004395,-0.997803,0.994901,0.031706,-0.095713,-0.002519,0.734888,0.082900,-0.673103,-0.000043,3.712767,-10.969694,-0.646763,56.684857,-81.612048,-49.949236,9.725318,1.179925,-0.214185,0,0.003463558,0
1786125685.661814,0.001013,0.000824,-0.001849,0.018066,0.004883,-0.998535,0.994868,0.031814,-0.096021,-0.002527,0.734967,0.084397,-0.672830,-0.000042,3.725796,-11.005000,-0.650144,57.080307,-81.497330,-50.222167,9.723074,1.201118,-0.212412,0,0.003463936,0
1786125685.681830,0.000880,0.000824,-0.001849,0.018066,0.004883,-0.997803,0.994834,0.031921,-0.096328,-0.002536,0.735016,0.085914,-0.672585,-0.000041,3.738756,-11.040305,-0.653533,57.499249,-81.383763,-50.517084,9.720188,1.222822,-0.209391,0,0.003464654,0
1786125685.701844,0.000348,0.000158,-0.001583,0.017822,0.005615,-0.998535,0.994801,0.032026,-0.096639,-0.002543,0.735010,0.087527,-0.672383,-0.000043,3.751519,-11.075957,-0.656825,57.985604,-81.268034,-50.871706,9.717066,1.245442,-0.208832,0,0.003465131,0
1786125685.721822,0.000880,0.000691,-0.001450,0.017822,0.005371,-0.998047,0.994767,0.032134,-0.096947,-0.002550,0.734975,0.089133,-0.672210,-0.000040,3.764535,-11.111320,-0.660021,58.482491,-81.155302,-51.237018,9.714072,1.268447,-0.208420,0,0.003463907,0
1786125685.741905,0.001013,0.000425,-0.001583,0.017578,0.005615,-0.998047,0.994734,0.032242,-0.097256,-0.002557,0.734889,0.090787,-0.672083,-0.000037,3.777702,-11.146813,-0.663323,59.026085,-81.043328,-51.645190,9.710879,1.291781,-0.209484,0,0.003467514,0
1786125685.761896,0.000747,0.000691,-0.001450,0.017334,0.005127,-0.998291,0.994700,0.032349,-0.097565,-0.002563,0.734759,0.092399,-0.672005,-0.000036,3.790641,-11.182178,-0.666533,59.583963,-80.937676,-52.071044,9.707667,1.314924,-0.212157,0,0.003466287,0
1786125685.781850,0.000880,0.000691,-0.001450,0.018311,0.005127,-0.997559,0.994666,0.032456,-0.097873,-0.002570,0.734646,0.094018,-0.671905,-0.000034,3.803611,-11.217558,-0.669742,60.115866,-80.829291,-52.470385,9.705810,1.337924,-0.215171,0,0.003463786,0
1786125685.801816,0.001147,0.000824,-0.001716,0.018066,0.005127,-0.997803,0.994632,0.032565,-0.098180,-0.002578,0.734483,0.095654,-0.671851,-0.000032,3.816781,-11.252847,-0.673112,60.682710,-80.723326,-52.903212,9.702616,1.361071,-0.218671,0,0.003462436,0
1786125685.821872,0.000747,0.000558,-0.001450,0.017334,0.005371,-0.997803,0.994598,0.032672,-0.098489,-0.002584,0.734242,0.097329,-0.671875,-0.000032,3.829776,-11.288271,-0.676360,61.315374,-80.620718,-53.398729,9.698986,1.384514,-0.223393,0,0.003465220,0
1786125685.841829,0.001147,0.000425,-0.001982,0.018066,0.004639,-0.998535,0.994564,0.032780,-0.098799,-0.002593,0.734005,0.098931,-0.671900,-0.000032,3.842917,-11.323800,-0.679903,61.913175,-80.522130,-53.865474,9.696858,1.407563,-0.231114,0,0.003463122,0
1786125685.861848,0.000880,0.000425,-0.001583,0.017334,0.004639,-0.998291,0.994530,0.032887,-0.099108,-0.002600,0.733693,0.100540,-0.672002,-0.000032,3.855902,-11.359330,-0.683229,62.564874,-80.428710,-54.385379,9.693370,1.430103,-0.237698,0,0.003464148,0
1786125685.881823,0.000747,0.000824,-0.001982,0.017578,0.005127,-0.998535,0.994495,0.032994,-0.099416,-0.002609,0.733355,0.102207,-0.672120,-0.000034,3.868923,-11.394594,-0.686793,63.239263,-80.331876,-54.923537,9.690950,1.453224,-0.246852,0,0.003463091,0
1786125685.901822,0.001147,0.000291,-0.001317,0.017090,0.005127,-0.998779,0.994461,0.033103,-0.099726,-0.002615,0.732948,0.103876,-0.672308,-0.000030,3.882132,-11.430179,-0.690004,63.958516,-80.239908,-55.505776,9.687717,1.476443,-0.256943,0,0.003463278,0
1786125685.921830,0.001147,0.000558,-0.001849,0.017578,0.005371,-0.997803,0.994426,0.033213,-0.100034,-0.002623,0.732527,0.105571,-0.672502,-0.000030,3.895418,-11.465585,-0.693525,64.680929,-80.145450,-56.089394,9.685529,1.499931,-0.267625,0,0.003463854,0
1786125685.941824,0.000348,0.000824,-0.001716,0.018066,0.004883,-0.997314,0.994392,0.033317,-0.100342,-0.002631,0.732100,0.107197,-0.672710,-0.000034,3.908135,-11.500875,-0.696948,65.382390,-80.055127,-56.657834,9.683262,1.522897,-0.279144,0,0.003463629,0
1786125685.962180,0.000880,0.000291,-0.001450,0.017578,0.004883,-0.998535,0.994357,0.033424,-0.100652,-0.002638,0.731601,0.108828,-0.672991,-0.000032,3.921161,-11.536471,-0.700249,66.131075,-79.969217,-57.272815,9.680128,1.545385,-0.292772,0,0.003478940,0
1786125685.982041,0.001280,0.000425,-0.001716,0.017578,0.004639,-0.998291,0.994322,0.033533,-0.100962,-0.002645,0.731066,0.110425,-0.673312,-0.000030,3.934415,-11.571991,-0.703702,66.890537,-79.887260,-57.901271,9.677568,1.567527,-0.306839,0,0.003469338,0
1786125686.002027,0.001013,0.000824,-0.001583,0.017578,0.005127,-0.998047,0.994287,0.033642,-0.101269,-0.002652,0.730492,0.112060,-0.673665,-0.000029,3.947578,-11.607262,-0.707085,67.677677,-79.803615,-58.554243,9.675112,1.589722,-0.321859,0,0.003467487,0
1786125686.021915,0.000614,0.000691,-0.001583,0.017334,0.005371,-0.998291,0.994252,0.033748,-0.101577,-0.002660,0.729862,0.113707,-0.674072,-0.000030,3.960568,-11.642591,-0.710491,68.500249,-79.721311,-59.241954,9.672344,1.612138,-0.338591,0,0.003461874,0
1786125686.042193,0.000880,0.000824,-0.001849,0.017578,0.005371,-0.997803,0.994216,0.033856,-0.101884,-0.002668,0.729205,0.115339,-0.674505,-0.000031,3.973734,-11.677836,-0.714053,69.329614,-79.640140,-59.937528,9.670072,1.634405,-0.356131,0,0.003474286,0
1786125686.061878,0.000747,0.000558,-0.001583,0.018066,0.005127,-0.998291,0.994181,0.033963,-0.102192,-0.002675,0.728534,0.116914,-0.674958,-0.000031,3.986740,-11.713262,-0.717468,70.146641,-79.562643,-60.625459,9.668084,1.656006,-0.375485,0,0.003458335,0
1786125686.081969,0.000614,0.000558,-0.001583,0.018311,0.005127,-0.998047,0.994146,0.034069,-0.102501,-0.002683,0.727838,0.118463,-0.675439,-0.000032,3.999663,-11.748691,-0.720888,70.968796,-79.486884,-61.320569,9.665931,1.676997,-0.394403,0,0.003463635,0
1786125686.101875,0.000880,0.000025,-0.002116,0.017334,0.004883,-0.998535,0.994110,0.034177,-0.102812,-0.002692,0.727050,0.119975,-0.676021,-0.000035,4.012824,-11.784399,-0.724652,71.850705,-79.418183,-62.078724,9.662586,1.697402,-0.414890,0,0.003459745,0
1786125686.122033,0.001147,0.000824,-0.001849,0.017822,0.005371,-0.998291,0.994074,0.034286,-0.103119,-0.002701,0.726250,0.121506,-0.676607,-0.000034,4.026154,-11.819642,-0.728246,72.731176,-79.346659,-62.833461,9.660919,1.717617,-0.437012,0,0.003467548,0
1786125686.141896,0.000614,0.001224,-0.001583,0.017578,0.005127,-0.998047,0.994039,0.034393,-0.103425,-0.002708,0.725406,0.122973,-0.677247,-0.000033,4.039125,-11.854674,-0.731672,73.627792,-79.280716,-63.609715,9.658424,1.737225,-0.459475,0,0.003460857,0
1786125686.161883,0.001013,0.000691,-0.001849,0.017578,0.005127,-0.998047,0.994003,0.034501,-0.103732,-0.002716,0.724522,0.124407,-0.677931,-0.000033,4.052368,-11.889999,-0.735285,74.541793,-79.217391,-64.405995,9.656326,1.756140,-0.483628,0,0.003461115,0
1786125686.181907,0.000880,0.000824,-0.001716,0.017578,0.005859,-0.998779,0.993967,0.034610,-0.104039,-0.002724,0.723596,0.125879,-0.678648,-0.000032,4.065632,-11.925215,-0.738845,75.482845,-79.150839,-65.226165,9.654307,1.775093,-0.509482,0,0.003462863,0
1786125686.201911,0.000614,0.000691,-0.001849,0.017822,0.005127,-0.998047,0.993931,0.034716,-0.104347,-0.002732,0.722654,0.127223,-0.679401,-0.000034,4.078646,-11.960540,-0.742472,76.411082,-79.092673,-66.044155,9.652409,1.793014,-0.535079,0,0.003463322,0
1786125686.221912,0.000215,0.000425,-0.001716,0.017090,0.005615,-0.997803,0.993895,0.034822,-0.104656,-0.002741,0.721634,0.128580,-0.680229,-0.000038,4.091532,-11.995986,-0.746063,77.394209,-79.034862,-66.916209,9.649803,1.810243,-0.561593,0,0.003463580,0
1786125686.242038,0.000348,0.000425,-0.001317,0.018311,0.004883,-0.998047,0.993859,0.034926,-0.104965,-0.002747,0.720655,0.129790,-0.681037,-0.000038,4.104283,-12.031502,-0.749395,78.318485,-78.984417,-67.741095,9.649160,1.826137,-0.590743,0,0.003469046,0
1786125686.261875,0.000614,0.000558,-0.001849,0.017822,0.005615,-0.998779,0.993822,0.035033,-0.105274,-0.002755,0.719614,0.131038,-0.681898,-0.000039,4.117386,-12.066876,-0.753068,79.287236,-78.930942,-68.607441,9.647006,1.841605,-0.619171,0,0.003460911,0
1786125686.281820,0.000747,0.000691,-0.001450,0.018066,0.004883,-0.997803,0.993786,0.035140,-0.105581,-0.002762,0.718567,0.132145,-0.682788,-0.000037,4.130403,-12.102228,-0.756486,80.239761,-78.886725,-69.468842,9.645509,1.855782,-0.647593,0,0.003459352,0
1786125686.301866,0.000348,0.000957,-0.001583,0.017578,0.004883,-0.997559,0.993749,0.035245,-0.105888,-0.002769,0.717470,0.133198,-0.683736,-0.000037,4.143234,-12.137413,-0.759984,81.220654,-78.845895,-70.363306,9.643558,1.868692,-0.676836,0,0.003462482,0
1786125686.321824,0.001013,0.000691,-0.001849,0.017334,0.005127,-0.998291,0.993713,0.035353,-0.106196,-0.002777,0.716331,0.134224,-0.684729,-0.000036,4.156534,-12.172723,-0.763668,82.225829,-78.806026,-71.284088,9.641956,1.880983,-0.708546,0,0.003461054,0
1786125686.341859,0.000880,0.000824,-0.001450,0.017578,0.005127,-0.997803,0.993676,0.035461,-0.106503,-0.002784,0.715185,0.135178,-0.685738,-0.000033,4.169702,-12.207975,-0.767118,83.223967,-78.769252,-72.203591,9.640891,1.892334,-0.740067,0,0.003463323,0
1786125686.361811,0.000481,0.000824,-0.002116,0.018066,0.005615,-0.998291,0.993639,0.035568,-0.106809,-0.002794,0.714042,0.136116,-0.686743,-0.000037,4.182777,-12.243183,-0.770977,84.211047,-78.730046,-73.113935,9.640131,1.903281,-0.772721,0,0.003461450,0
1786125686.381799,0.001013,0.000824,-0.001583,0.017578,0.004883,-0.998535,0.993602,0.035676,-0.107117,-0.002801,0.712860,0.136910,-0.687813,-0.000034,4.196014,-12.278438,-0.774515,85.216574,-78.701295,-74.053953,9.638353,1.912600,-0.805039,0,0.003461614,0
1786125686.401803,0.000614,0.000691,-0.001317,0.018311,0.005615,-0.998047,0.993565,0.035783,-0.107424,-0.002806,0.711697,0.137700,-0.688859,-0.000032,4.209067,-12.313756,-0.777927,86.199220,-78.668918,-74.971462,9.638132,1.921190,-0.837661,0,0.003462414,0
1786125686.421795,0.000747,0.000558,-0.001716,0.017822,0.005127,-0.998047,0.993528,0.035890,-0.107732,-0.002814,0.710496,0.138376,-0.689962,-0.000032,4.222206,-12.349147,-0.781577,87.202905,-78.643668,-75.919651,9.636542,1.928669,-0.870202,0,0.003462454,0
1786125686.441819,0.000348,0.000558,-0.002249,0.018311,0.004639,-0.997314,0.993491,0.035994,-0.108041,-0.002825,0.709319,0.138921,-0.691063,-0.000038,4.235096,-12.384546,-0.785527,88.179366,-78.624900,-76.851748,9.636161,1.934460,-0.902955,0,0.003463911,0
1786125686.461843,0.000747,0.000691,-0.001317,0.018311,0.005371,-0.998047,0.993453,0.036102,-0.108349,-0.002831,0.708127,0.139470,-0.692173,-0.000035,4.248207,-12.419871,-0.788958,89.162515,-78.603697,-77.789533,9.635562,1.939488,-0.936471,0,0.003464944,0
1786125686.481818,0.000481,0.000558,-0.001716,0.017334,0.005615,-0.998047,0.993416,0.036208,-0.108657,-0.002839,0.706871,0.139983,-0.693353,-0.000036,4.261303,-12.455228,-0.792653,90.192885,-78.582873,-78.777847,9.633854,1.944136,-0.969626,0,0.003463690,0
1786125686.501879,0.000614,0.000824,-0.001716,0.018066,0.004883,-0.997803,0.993378,0.036314,-0.108964,-0.002846,0.705661,0.140330,-0.694514,-0.000036,4.274340,-12.490477,-0.796316,91.180942,-78.571574,-79.737318,9.633882,1.947096,-1.004205,0,0.003466404,0
1786125686.521801,0.001013,0.000558,-0.002116,0.018066,0.005615,-0.998535,0.993340,0.036424,-0.109272,-0.002856,0.704442,0.140688,-0.695679,-0.000036,4.287769,-12.525825,-0.800256,92.173297,-78.556270,-80.700314,9.633484,1.949396,-1.038528,0,0.003462478,0
1786125686.541821,0.000747,0.000691,-0.001982,0.017578,0.004883,-0.998535,0.993302,0.036531,-0.109579,-0.002865,0.703203,0.140891,-0.696889,-0.000037,4.300953,-12.561128,-0.804103,93.179665,-78.550285,-81.690000,9.632482,1.950221,-1.072240,0,0.003463751,0
1786125686.561838,0.000614,0.001224,-0.001716,0.018066,0.004883,-0.998047,0.993265,0.036637,-0.109884,-0.002873,0.702002,0.141010,-0.698075,-0.000036,4.314005,-12.596145,-0.807775,94.155036,-78.547728,-82.655550,9.632779,1.949575,-1.105849,0,0.003464538,0
1786125686.581819,0.001147,0.000691,-0.001450,0.017090,0.005859,-0.998291,0.993227,0.036747,-0.110191,-0.002879,0.700738,0.141172,-0.699312,-0.000032,4.327523,-12.631414,-0.811363,95.178201,-78.538816,-83.665002,9.631724,1.948806,-1.139330,0,0.003463648,0
1786125686.601811,0.000614,0.000691,-0.001583,0.017090,0.005127,-0.998047,0.993189,0.036854,-0.110499,-0.002886,0.699489,0.141173,-0.700561,-0.000031,4.340656,-12.666711,-0.815015,96.191880,-78.539030,-84.678623,9.631416,1.946760,-1.173868,0,0.003463406,0
1786125686.621799,0.000747,0.001357,-0.001716,0.018066,0.005371,-0.998535,0.993151,0.036962,-0.110803,-0.002894,0.698309,0.141114,-0.701749,-0.000030,4.353870,-12.701624,-0.818722,97.150421,-78.540794,-85.641899,9.632399,1.943576,-1.208546,0,0.003463077,0
1786125686.641829,0.000481,0.000425,-0.001317,0.018066,0.005371,-0.997559,0.993112,0.037068,-0.111112,-0.002900,0.697137,0.140979,-0.702941,-0.000030,4.366895,-12.737085,-0.822245,98.105617,-78.545552,-86.608188,9.632470,1.939419,-1.240091,0,0.003464593,0
1786125686.661841,0.000481,0.000558,-0.001716,0.018066,0.005859,-0.996826,0.993074,0.037174,-0.111419,-0.002908,0.695976,0.140829,-0.704120,-0.000032,4.380044,-12.772428,-0.826020,99.051328,-78.548185,-87.566339,9.632618,1.934881,-1.271424,0,0.003464976,0
1786125686.681801,0.000081,0.000425,-0.001183,0.017578,0.004883,-0.997803,0.993035,0.037278,-0.111728,-0.002913,0.694811,0.140501,-0.705334,-0.000033,4.392789,-12.807908,-0.829473,100.011147,-78.561918,-88.553182,9.632239,1.928570,-1.304137,0,0.003463064,0
1786125686.701857,0.001013,0.000824,-0.002382,0.018311,0.005371,-0.998291,0.992996,0.037387,-0.112035,-0.002924,0.693706,0.140165,-0.706489,-0.000034,4.406259,-12.843095,-0.833625,100.924837,-78.573827,-89.494640,9.633397,1.921612,-1.336359,0,0.003465714,0
1786125686.721806,0.000348,0.000425,-0.001317,0.017822,0.004883,-0.998291,0.992958,0.037492,-0.112344,-0.002930,0.692595,0.139704,-0.707668,-0.000034,4.419174,-12.878569,-0.837171,101.852716,-78.592736,-90.460387,9.633350,1.913323,-1.366540,0,0.003463158,0
1786125686.741848,0.000880,0.000558,-0.001450,0.018066,0.004883,-0.998291,0.992919,0.037600,-0.112652,-0.002937,0.691523,0.139181,-0.708819,-0.000031,4.432405,-12.913965,-0.840795,102.756989,-78.614401,-91.407425,9.634231,1.904025,-1.396735,0,0.003465179,0
1786125686.761986,0.000614,0.000691,-0.001849,0.017578,0.005127,-0.998535,0.992880,0.037706,-0.112959,-0.002945,0.690445,0.138631,-0.709977,-0.000032,4.445595,-12.949247,-0.844668,103.669647,-78.634814,-92.365436,9.634463,1.894277,-1.426057,0,0.003470815,0
1786125686.781871,0.000880,0.000291,-0.001849,0.017822,0.004395,-0.998535,0.992840,0.037814,-0.113269,-0.002953,0.689413,0.137940,-0.711113,-0.000032,4.458837,-12.984792,-0.848543,104.561877,-78.664383,-93.314431,9.635394,1.883157,-1.455366,0,0.003464242,0
1786125686.801875,0.000481,0.000691,-0.001583,0.017090,0.005371,-0.998047,0.992801,0.037920,-0.113576,-0.002961,0.688361,0.137305,-0.712255,-0.000032,4.471985,-13.020065,-0.852290,105.467018,-78.686252,-94.271830,9.635672,1.871942,-1.482733,0,0.003464387,0
1786125686.821888,0.000880,0.000558,-0.001583,0.018066,0.005127,-0.998291,0.992762,0.038028,-0.113884,-0.002968,0.687395,0.136578,-0.713326,-0.000030,4.485290,-13.055437,-0.856035,106.315800,-78.714905,-95.180138,9.637383,1.860263,-1.511459,0,0.003464853,0
1786125686.841831,0.000880,0.000558,-0.001583,0.018066,0.005371,-0.998047,0.992722,0.038136,-0.114192,-0.002975,0.686457,0.135829,-0.714372,-0.000029,4.498634,-13.090797,-0.859796,107.148099,-78.743562,-96.073852,9.638345,1.848083,-1.537284,0,0.003462228,0
1786125686.861906,0.001013,0.000558,-0.001716,0.017090,0.004883,-0.998291,0.992682,0.038245,-0.114500,-0.002982,0.685495,0.134991,-0.715454,-0.000027,4.512057,-13.126158,-0.863639,108.013519,-78.775609,-97.007996,9.638323,1.834994,-1.562819,0,0.003465899,0
1786125686.881833,0.000880,0.001090,-0.001849,0.017578,0.005127,-0.998291,0.992643,0.038353,-0.114805,-0.002990,0.684595,0.134129,-0.716477,-0.000027,4.525433,-13.161203,-0.867547,108.835459,-78.809036,-97.900771,9.639884,1.821407,-1.588620,0,0.003462351,0
1786125686.901862,0.000614,0.000691,-0.001583,0.017578,0.005859,-0.997559,0.992603,0.038461,-0.115112,-0.002998,0.683719,0.133301,-0.717468,-0.000027,4.538731,-13.196453,-0.871349,109.638030,-78.838289,-98.771384,9.641001,1.808122,-1.612131,0,0.003464019,0
1786125686.921817,0.000481,0.000957,-0.001583,0.017090,0.005127,-0.998047,0.992563,0.038567,-0.115418,-0.003005,0.682853,0.132356,-0.718467,-0.000028,4.551878,-13.231575,-0.875129,110.451768,-78.874258,-99.662727,9.641489,1.793976,-1.636092,0,0.003462130,0
1786125686.941818,0.000481,0.000425,-0.001583,0.017822,0.005615,-0.998535,0.992523,0.038674,-0.115726,-0.003012,0.682055,0.131420,-0.719396,-0.000029,4.565070,-13.266989,-0.878951,111.214527,-78.910149,-100.502463,9.643405,1.779559,-1.659908,0,0.003462633,0
1786125686.961832,0.001013,0.000558,-0.001849,0.017090,0.005371,-0.998047,0.992483,0.038784,-0.116034,-0.003021,0.681248,0.130437,-0.720339,-0.000028,4.578608,-13.302314,-0.882931,111.995448,-78.947167,-101.364056,9.643850,1.764775,-1.680782,0,0.003463605,0
1786125686.981813,0.001013,0.000425,-0.001583,0.017822,0.005127,-0.998047,0.992443,0.038892,-0.116342,-0.003027,0.680520,0.129385,-0.721216,-0.000026,4.592052,-13.337747,-0.886756,112.729531,-78.990827,-102.184339,9.645807,1.749242,-1.702389,0,0.003462908,0
1786125687.001805,0.000614,0.000691,-0.001716,0.017334,0.004883,-0.997803,0.992403,0.038999,-0.116650,-0.003035,0.679802,0.128284,-0.722090,-0.000027,4.605277,-13.373025,-0.890653,113.468270,-79.036372,-103.013604,9.646749,1.733094,-1.721529,0,0.003462860,0
1786125687.021820,0.000747,0.001090,-0.001849,0.018555,0.005127,-0.997803,0.992362,0.039106,-0.116955,-0.003043,0.679192,0.127175,-0.722858,-0.000028,4.618577,-13.408073,-0.894613,114.128103,-79.086138,-103.764551,9.649459,1.716864,-1.740625,0,0.003463788,0
1786125687.041806,0.000747,0.000824,-0.001583,0.018066,0.004883,-0.997559,0.992322,0.039214,-0.117261,-0.003050,0.678589,0.126024,-0.723627,-0.000027,4.631839,-13.443288,-0.898435,114.796510,-79.137701,-104.527392,9.650593,1.700262,-1.756672,0,0.003463274,0
1786125687.062016,0.001013,0.001090,-0.001982,0.017822,0.005371,-0.998291,0.992281,0.039323,-0.117566,-0.003059,0.678000,0.124915,-0.724370,-0.000026,4.645387,-13.478305,-0.902506,115.450459,-79.185436,-105.272316,9.652008,1.683985,-1.773446,0,0.003472449,0
1786125687.082056,0.000880,0.001090,-0.001716,0.018311,0.004883,-0.997803,0.992241,0.039431,-0.117872,-0.003067,0.677480,0.123730,-0.725060,-0.000025,4.658743,-13.513362,-0.906409,116.070343,-79.240929,-105.989393,9.654043,1.667237,-1.788609,0,0.003472084,0
1786125687.102134,0.001013,0.000558,-0.001716,0.017090,0.005371,-0.997314,0.992200,0.039540,-0.118179,-0.003074,0.676912,0.122599,-0.725782,-0.000024,4.672307,-13.548683,-0.910374,116.723089,-79.288409,-106.734804,9.654592,1.650685,-1.802060,0,0.003473486,0
1786125687.121874,0.000880,0.000824,-0.001583,0.017334,0.005371,-0.997803,0.992159,0.039649,-0.118485,-0.003081,0.676394,0.121453,-0.726457,-0.000023,4.685768,-13.583859,-0.914255,117.344904,-79.338505,-107.450602,9.656361,1.634247,-1.817591,0,0.003460072,0
1786125687.141934,0.000614,0.000425,-0.001583,0.017578,0.005615,-0.998047,0.992118,0.039756,-0.118793,-0.003088,0.675918,0.120319,-0.727089,-0.000024,4.699109,-13.619255,-0.918169,117.935955,-79.388771,-108.134777,9.658189,1.618019,-1.831656,0,0.003463626,0
1786125687.161860,0.000880,0.000957,-0.001583,0.017578,0.004395,-0.998047,0.992077,0.039864,-0.119099,-0.003095,0.675488,0.119046,-0.727697,-0.000023,4.712443,-13.654399,-0.922029,118.524764,-79.450413,-108.827882,9.659788,1.600633,-1.844185,0,0.003460566,0
1786125687.181876,0.000481,0.000558,-0.001849,0.017578,0.005371,-0.997803,0.992036,0.039970,-0.119407,-0.003104,0.675082,0.117877,-0.728265,-0.000026,4.725723,-13.689714,-0.926104,119.079111,-79.504878,-109.478372,9.661711,1.583773,-1.855406,0,0.003462111,0
1786125687.201836,0.000614,0.000691,-0.001450,0.017090,0.005615,-0.998047,0.991994,0.040078,-0.119714,-0.003110,0.674675,0.116735,-0.728825,-0.000025,4.739082,-13.724953,-0.929958,119.634019,-79.556731,-110.126938,9.662941,1.567552,-1.866401,0,0.003460899,0
1786125687.221809,0.000747,0.000824,-0.001849,0.017090,0.005371,-0.998535,0.991953,0.040186,-0.120020,-0.003119,0.674301,0.115567,-0.729357,-0.000026,4.752545,-13.760106,-0.934043,120.173759,-79.611307,-110.762521,9.664545,1.551310,-1.877634,0,0.003460553,0
1786125687.241818,0.000614,0.000824,-0.001583,0.018311,0.005371,-0.998047,0.991911,0.040293,-0.120326,-0.003126,0.674033,0.114386,-0.729792,-0.000026,4.765848,-13.795287,-0.937968,120.639639,-79.673045,-111.325277,9.667464,1.534965,-1.887042,0,0.003461820,0
1786125687.261995,0.000614,0.001224,-0.001583,0.017578,0.005127,-0.998047,0.991870,0.040400,-0.120630,-0.003133,0.673753,0.113189,-0.730236,-0.000026,4.779153,-13.830240,-0.941881,121.122634,-79.734374,-111.906395,9.668640,1.518497,-1.894069,0,0.003469926,0
1786125687.281887,0.000747,0.000691,-0.001849,0.017822,0.005615,-0.998047,0.991828,0.040509,-0.120937,-0.003141,0.673511,0.112052,-0.730635,-0.000027,4.792636,-13.865464,-0.945999,121.568462,-79.793390,-112.445504,9.670744,1.502576,-1.901561,0,0.003463852,0
1786125687.301886,0.001147,0.000291,-0.001183,0.017578,0.005371,-0.997803,0.991786,0.040618,-0.121246,-0.003146,0.673280,0.110894,-0.731024,-0.000022,4.806245,-13.900954,-0.949750,122.016370,-79.854394,-112.987928,9.672308,1.486650,-1.907817,0,0.003463891,0
1786125687.321941,0.000348,0.000425,-0.001849,0.017578,0.005371,-0.998535,0.991744,0.040725,-0.121554,-0.003155,0.673078,0.109743,-0.731384,-0.000026,4.819495,-13.936335,-0.953894,122.442714,-79.915650,-113.508926,9.674137,1.470917,-1.914600,0,0.003466291,0
1786125687.341881,0.000348,0.000957,-0.001849,0.018066,0.005371,-0.999023,0.991702,0.040831,-0.121859,-0.003163,0.672936,0.108599,-0.731685,-0.000029,4.832723,-13.971417,-0.958016,122.825564,-79.980459,-113.985839,9.676478,1.455344,-1.920325,0,0.003463209,0
1786125687.361866,0.000747,0.000558,-0.001716,0.017822,0.004883,-0.997803,0.991660,0.040938,-0.122167,-0.003171,0.672807,0.107417,-0.731978,-0.000029,4.846120,-14.006750,-0.962076,123.212950,-80.048427,-114.470065,9.678168,1.439453,-1.922934,0,0.003462764,0
1786125687.381856,0.000614,0.000558,-0.001716,0.018311,0.005371,-0.998047,0.991617,0.041045,-0.122474,-0.003179,0.672732,0.106297,-0.732211,-0.000030,4.859489,-14.042067,-0.966155,123.548241,-80.115822,-114.897193,9.680674,1.424066,-1.926573,0,0.003462664,0
1786125687.401840,0.000481,0.000558,-0.001716,0.018066,0.005127,-0.998291,0.991575,0.041152,-0.122782,-0.003186,0.672667,0.105167,-0.732433,-0.000031,4.872766,-14.077389,-0.970238,123.881404,-80.184374,-115.323114,9.682418,1.408893,-1.928816,0,0.003462363,0
1786125687.421862,0.000481,0.000691,-0.001849,0.017822,0.005371,-0.997559,0.991533,0.041258,-0.123088,-0.003195,0.672613,0.104082,-0.732639,-0.000033,4.886109,-14.112614,-0.974412,124.199782,-80.250333,-115.730543,9.684181,1.394128,-1.929755,0,0.003463724,0
1786125687.441854,0.001280,0.000691,-0.001716,0.018311,0.004883,-0.998047,0.991490,0.041368,-0.123395,-0.003202,0.672613,0.102958,-0.732797,-0.000029,4.899814,-14.147872,-0.978496,124.489829,-80.323240,-116.112323,9.686593,1.379192,-1.931710,0,0.003463464,0
1786125687.461905,0.000081,0.000558,-0.001716,0.018311,0.005615,-0.998047,0.991447,0.041473,-0.123702,-0.003210,0.672633,0.101925,-0.732923,-0.000033,4.912933,-14.183172,-0.982619,124.743075,-80.390944,-116.450505,9.688696,1.365062,-1.931680,0,0.003465819,0
1786125687.482128,0.000747,0.000691,-0.001982,0.017578,0.004639,-0.998535,0.991404,0.041581,-0.124009,-0.003219,0.672636,0.100814,-0.733074,-0.000033,4.926384,-14.218414,-0.986878,125.035227,-80.462352,-116.833721,9.689902,1.350597,-1.931644,0,0.003474870,0
1786125687.501934,0.000481,0.000425,-0.001849,0.018066,0.005127,-0.998047,0.991361,0.041687,-0.124317,-0.003228,0.672686,0.099770,-0.733170,-0.000035,4.939714,-14.253799,-0.991091,125.274731,-80.533072,-117.158910,9.692423,1.336409,-1.931130,0,0.003463975,0
1786125687.521893,0.000747,0.000691,-0.001317,0.017822,0.005371,-0.998779,0.991318,0.041795,-0.124624,-0.003233,0.672743,0.098770,-0.733254,-0.000031,4.953163,-14.289043,-0.994997,125.502759,-80.601553,-117.468533,9.694196,1.322886,-1.930476,0,0.003462233,0
1786125687.541900,0.000747,0.000691,-0.001583,0.017822,0.004883,-0.998291,0.991275,0.041902,-0.124931,-0.003240,0.672823,0.097738,-0.733319,-0.000030,4.966595,-14.324293,-0.999053,125.723304,-80.673788,-117.773542,9.696112,1.309315,-1.928505,0,0.003463000,0
1786125687.561895,0.000614,0.000558,-0.002116,0.017090,0.005371,-0.997803,0.991232,0.042010,-0.125238,-0.003250,0.672874,0.096787,-0.733398,-0.000033,4.980130,-14.359561,-1.003462,125.946198,-80.738048,-118.074484,9.697376,1.296411,-1.925927,0,0.003463070,0
1786125687.581904,0.001013,0.000291,-0.001450,0.017822,0.005371,-0.998291,0.991188,0.042120,-0.125546,-0.003256,0.672986,0.095845,-0.733419,-0.000029,4.993775,-14.395022,-1.007493,126.121878,-80.807084,-118.326969,9.699897,1.283864,-1.925117,0,0.003463701,0
1786125687.601902,0.000348,0.000824,-0.002249,0.017578,0.005615,-0.998047,0.991145,0.042226,-0.125852,-0.003267,0.673105,0.094954,-0.733426,-0.000034,5.007195,-14.430124,-1.011988,126.277993,-80.872752,-118.556444,9.701540,1.272003,-1.921790,0,0.003463712,0
1786125687.621869,0.001147,0.000558,-0.001716,0.017822,0.005127,-0.997803,0.991101,0.042336,-0.126159,-0.003274,0.673255,0.094028,-0.733407,-0.000031,5.020935,-14.465427,-1.016173,126.422447,-80.943886,-118.776450,9.703582,1.259926,-1.918494,0,0.003462375,0
1786125687.641856,0.000481,0.000425,-0.001716,0.018066,0.005859,-0.998291,0.991057,0.042444,-0.126467,-0.003282,0.673432,0.093197,-0.733351,-0.000032,5.034382,-14.500776,-1.020395,126.517870,-81.010918,-118.940052,9.705748,1.248669,-1.915012,0,0.003462261,0
1786125687.661915,0.000747,0.000425,-0.001716,0.017578,0.005127,-0.998291,0.991013,0.042551,-0.126775,-0.003290,0.673599,0.092310,-0.733310,-0.000032,5.047917,-14.536149,-1.024609,126.640449,-81.080663,-119.135164,9.707060,1.237295,-1.910340,0,0.003465238,0
1786125687.681898,0.000747,0.000691,-0.001583,0.017090,0.005127,-0.997803,0.990969,0.042660,-0.127081,-0.003297,0.673754,0.091447,-0.733275,-0.000030,5.061456,-14.571368,-1.028745,126.768163,-81.148040,-119.333457,9.708439,1.225848,-1.905394,0,0.003464218,0
1786125687.701923,0.000747,0.000558,-0.001982,0.017578,0.005127,-0.997803,0.990925,0.042768,-0.127388,-0.003306,0.673954,0.090602,-0.733197,-0.000031,5.075042,-14.606648,-1.033127,126.853525,-81.217789,-119.488035,9.710698,1.214770,-1.901315,0,0.003465276,0
1786125687.721920,0.000614,0.001224,-0.002116,0.017334,0.004883,-0.997559,0.990881,0.042875,-0.127692,-0.003315,0.674160,0.089754,-0.733112,-0.000033,5.088550,-14.641547,-1.037557,126.935530,-81.288267,-119.639608,9.712294,1.203763,-1.895662,0,0.003464846,0
1786125687.741881,0.000747,0.000291,-0.001849,0.018311,0.004883,-0.998047,0.990837,0.042983,-0.128001,-0.003324,0.674433,0.088920,-0.732962,-0.000034,5.102073,-14.677003,-1.041878,126.957909,-81.363783,-119.730323,9.715095,1.192889,-1.890881,0,0.003463002,0
1786125687.761930,0.000614,0.000824,-0.002116,0.017578,0.005371,-0.998291,0.990792,0.043091,-0.128306,-0.003333,0.674676,0.088168,-0.732830,-0.000036,5.115649,-14.712109,-1.046360,126.980531,-81.431453,-119.814660,9.716316,1.182870,-1.883797,0,0.003465341,0
1786125687.781900,0.000747,0.000158,-0.001583,0.017578,0.005859,-0.998047,0.990748,0.043199,-0.128615,-0.003340,0.674923,0.087486,-0.732683,-0.000034,5.129297,-14.747601,-1.050587,126.978484,-81.495381,-119.868237,9.718049,1.173751,-1.877259,0,0.003463772,0
1786125687.801852,0.000348,0.000425,-0.001583,0.017334,0.004883,-0.998291,0.990703,0.043305,-0.128923,-0.003348,0.675175,0.086717,-0.732543,-0.000035,5.142610,-14.782976,-1.054782,126.999867,-81.565050,-119.952653,9.719435,1.164165,-1.870890,0,0.003461833,0
1786125687.821897,0.000614,0.000425,-0.001583,0.017334,0.005371,-0.997803,0.990658,0.043413,-0.129230,-0.003355,0.675436,0.086023,-0.732383,-0.000034,5.156141,-14.818330,-1.059001,126.989178,-81.630972,-119.998640,9.721192,1.154902,-1.863739,0,0.003464289,0
1786125687.841863,0.001013,0.000691,-0.001716,0.018311,0.004883,-0.998047,0.990613,0.043522,-0.129537,-0.003362,0.675773,0.085293,-0.732158,-0.000031,5.169823,-14.853557,-1.063268,126.923596,-81.705788,-119.992605,9.723820,1.145674,-1.857008,0,0.003462798,0
1786125687.861855,0.000614,0.000291,-0.001849,0.018066,0.005371,-0.998779,0.990568,0.043629,-0.129845,-0.003371,0.676099,0.084639,-0.731933,-0.000033,5.183379,-14.888980,-1.067663,126.839805,-81.774744,-119.962441,9.725422,1.137046,-1.848889,0,0.003462793,0
1786125687.881925,0.000614,0.000957,-0.001450,0.017578,0.005371,-0.998291,0.990523,0.043737,-0.130150,-0.003377,0.676412,0.084007,-0.731717,-0.000031,5.196892,-14.924036,-1.071800,126.761758,-81.841361,-119.936028,9.726650,1.128861,-1.839610,0,0.003466106,0
1786125687.901894,0.000880,0.000957,-0.001716,0.017822,0.005127,-0.998535,0.990478,0.043845,-0.130455,-0.003384,0.676749,0.083370,-0.731478,-0.000030,5.210564,-14.959090,-1.076093,126.660622,-81.910450,-119.886914,9.728514,1.120763,-1.831573,0,0.003464267,0
1786125687.921858,0.001013,0.000824,-0.001583,0.017578,0.005127,-0.998047,0.990433,0.043955,-0.130761,-0.003391,0.677081,0.082755,-0.731241,-0.000027,5.224311,-14.994222,-1.080327,126.556453,-81.977724,-119.832838,9.729942,1.112810,-1.822151,0,0.003462681,0
1786125687.941958,0.001147,0.000824,-0.001583,0.017822,0.005127,-0.998047,0.990388,0.044064,-0.131066,-0.003398,0.677437,0.082159,-0.730979,-0.000024,5.238131,-15.029355,-1.084568,126.421747,-82.045886,-119.746641,9.731801,1.105146,-1.813345,0,0.003467288,0
1786125687.961967,0.000481,0.000558,-0.001849,0.018311,0.005615,-0.998779,0.990343,0.044172,-0.131373,-0.003406,0.677825,0.081632,-0.730677,-0.000027,5.251661,-15.064611,-1.088999,126.227839,-82.112065,-119.596114,9.733901,1.098311,-1.804666,0,0.003466897,0
1786125687.981978,0.000747,0.000425,-0.001450,0.018066,0.005371,-0.997803,0.990297,0.044280,-0.131681,-0.003412,0.678207,0.081100,-0.730382,-0.000026,5.265270,-15.099970,-1.093207,126.040198,-82.178294,-119.451931,9.735224,1.091653,-1.793387,0,0.003466694,0
1786125688.001946,0.000614,0.000025,-0.001849,0.017090,0.004883,-0.997803,0.990251,0.044387,-0.131990,-0.003421,0.678538,0.080543,-0.730137,-0.000029,5.278858,-15.135540,-1.097676,125.907144,-82.241428,-119.364625,9.735783,1.084761,-1.783292,0,0.003464677,0
1786125688.021955,0.000481,0.000558,-0.001716,0.017822,0.005127,-0.998291,0.990205,0.044494,-0.132297,-0.003429,0.678922,0.080026,-0.729836,-0.000030,5.292347,-15.170813,-1.102047,125.705362,-82.306639,-119.205300,9.737992,1.078128,-1.774884,0,0.003464944,0
1786125688.041881,0.000747,0.000425,-0.001583,0.017090,0.005127,-0.997559,0.990159,0.044602,-0.132605,-0.003436,0.679269,0.079535,-0.729567,-0.000030,5.306006,-15.206157,-1.106364,125.530168,-82.367171,-119.070261,9.738761,1.071842,-1.763943,0,0.003461564,0
1786125688.061998,0.000614,0.000425,-0.001583,0.018066,0.005127,-0.998291,0.990113,0.044709,-0.132912,-0.003443,0.679680,0.079054,-0.729236,-0.000030,5.319557,-15.241512,-1.110679,125.282465,-82.432322,-118.861895,9.741120,1.065826,-1.755439,0,0.003467156,0
1786125688.081976,0.000481,0.000558,-0.001716,0.018066,0.005615,-0.998291,0.990067,0.044816,-0.133219,-0.003450,0.680096,0.078648,-0.728892,-0.000031,5.333113,-15.276764,-1.115091,125.000153,-82.492860,-118.612979,9.742595,1.060578,-1.744433,0,0.003465489,0
1786125688.102159,0.000614,0.000691,-0.001317,0.017578,0.005127,-0.998047,0.990021,0.044924,-0.133525,-0.003456,0.680492,0.078207,-0.728570,-0.000030,5.346651,-15.311972,-1.119258,124.747045,-82.554019,-118.395755,9.743476,1.055260,-1.733065,0,0.003472969,0
1786125688.121985,0.000880,0.000425,-0.001583,0.018066,0.005615,-0.997559,0.989974,0.045033,-0.133832,-0.003463,0.680918,0.077841,-0.728211,-0.000028,5.360430,-15.347304,-1.123617,124.433135,-82.612740,-118.111770,9.745318,1.050498,-1.722072,0,0.003463343,0
1786125688.141943,0.000747,0.000824,-0.002116,0.018066,0.005615,-0.997803,0.989928,0.045141,-0.134138,-0.003473,0.681350,0.077496,-0.727844,-0.000030,5.374218,-15.382377,-1.128278,124.097971,-82.670106,-117.805023,9.746612,1.046336,-1.710864,0,0.003461729,0
1786125688.161959,0.000481,0.000425,-0.001450,0.018311,0.005371,-0.998047,0.989881,0.045248,-0.134445,-0.003479,0.681800,0.077135,-0.727461,-0.000031,5.387723,-15.417725,-1.132567,123.745928,-82.729843,-117.482552,9.748120,1.042056,-1.699622,0,0.003462995,0
1786125688.181914,0.000481,0.001090,-0.001450,0.017822,0.005371,-0.997803,0.989835,0.045355,-0.134749,-0.003485,0.682228,0.076796,-0.727095,-0.000030,5.401244,-15.452686,-1.136833,123.402567,-82.786297,-117.166905,9.748941,1.037911,-1.687232,0,0.003461346,0
1786125688.201901,0.000747,0.000824,-0.001583,0.017578,0.004883,-0.997803,0.989788,0.045463,-0.135055,-0.003492,0.682647,0.076426,-0.726741,-0.000029,5.414901,-15.487807,-1.141189,123.076218,-82.843839,-116.870793,9.749909,1.033554,-1.675811,0,0.003461484,0
1786125688.221910,0.000081,0.000558,-0.001450,0.017822,0.004883,-0.997803,0.989742,0.045567,-0.135361,-0.003499,0.683083,0.076067,-0.726369,-0.000032,5.428156,-15.523088,-1.145488,122.719948,-82.901513,-116.544103,9.751384,1.029193,-1.664647,0,0.003462534,0
1786125688.241961,0.000481,0.000824,-0.001583,0.017822,0.004639,-0.997803,0.989695,0.045674,-0.135667,-0.003506,0.683525,0.075704,-0.725991,-0.000032,5.441635,-15.558219,-1.149853,122.352493,-82.959966,-116.206433,9.752611,1.024854,-1.652925,0,0.003465089,0
1786125688.262080,0.000481,0.000691,-0.001716,0.017334,0.004883,-0.998291,0.989648,0.045780,-0.135973,-0.003513,0.683940,0.075389,-0.725633,-0.000034,5.455192,-15.593401,-1.154326,121.993347,-83.012708,-115.873137,9.753350,1.020917,-1.641570,0,0.003469898,0
1786125688.281935,0.001413,0.000425,-0.001450,0.017578,0.005371,-0.998291,0.989601,0.045892,-0.136280,-0.003519,0.684367,0.075147,-0.725255,-0.000028,5.469297,-15.628731,-1.158678,121.592660,-83.061774,-115.491811,9.754698,1.017749,-1.630513,0,0.003462309,0
1786125688.302074,0.000348,0.000291,-0.001583,0.017090,0.005127,-0.997314,0.989553,0.045998,-0.136588,-0.003527,0.684769,0.074892,-0.724902,-0.000030,5.482814,-15.664132,-1.163124,121.215967,-83.108978,-115.136203,9.755224,1.014843,-1.618079,0,0.003468669,0
1786125688.321929,0.000481,0.000957,-0.001183,0.017578,0.004883,-0.998047,0.989506,0.046105,-0.136893,-0.003532,0.685208,0.074620,-0.724515,-0.000028,5.496292,-15.699190,-1.167292,120.798320,-83.159988,-114.740658,9.756701,1.011713,-1.607878,0,0.003461346,0
1786125688.341953,0.000481,0.000291,-0.001716,0.018066,0.004883,-0.998535,0.989458,0.046211,-0.137201,-0.003539,0.685673,0.074367,-0.724101,-0.000030,5.509853,-15.734603,-1.171818,120.335761,-83.211059,-114.299028,9.758215,1.008791,-1.596701,0,0.003463070,0
1786125688.361923,0.000614,0.000558,-0.001982,0.018311,0.004639,-0.998291,0.989411,0.046318,-0.137507,-0.003548,0.686158,0.074106,-0.723668,-0.000033,5.523497,-15.769861,-1.176485,119.844666,-83.263623,-113.829476,9.759495,1.005899,-1.583901,0,0.003462027,0
1786125688.381919,0.001013,0.000425,-0.001849,0.018066,0.005127,-0.997559,0.989363,0.046428,-0.137815,-0.003556,0.686627,0.073920,-0.723242,-0.000032,5.537423,-15.805178,-1.181109,119.340959,-83.309703,-113.340911,9.760312,1.003589,-1.570154,0,0.003462378,0
1786125688.401917,0.000747,0.000691,-0.001849,0.017578,0.005127,-0.998291,0.989315,0.046536,-0.138120,-0.003564,0.687069,0.073752,-0.722839,-0.000032,5.551219,-15.840335,-1.185732,118.856494,-83.352122,-112.870290,9.760749,1.001758,-1.558193,0,0.003462725,0
1786125688.421958,0.000481,0.000025,-0.001583,0.017334,0.005371,-0.997803,0.989267,0.046643,-0.138429,-0.003572,0.687493,0.073625,-0.722449,-0.000033,5.564874,-15.875872,-1.190255,118.375859,-83.389943,-112.400231,9.761345,1.000336,-1.545904,0,0.003464803,0
1786125688.441946,0.000348,0.000558,-0.001317,0.017578,0.004883,-0.997559,0.989219,0.046749,-0.138736,-0.003577,0.687938,0.073454,-0.722043,-0.000033,5.578342,-15.911142,-1.194581,117.876924,-83.431868,-111.915290,9.762348,0.998699,-1.534134,0,0.003464099,0
1786125688.462003,0.000348,0.000691,-0.001849,0.017578,0.005371,-0.998535,0.989171,0.046856,-0.139042,-0.003586,0.688381,0.073356,-0.721631,-0.000036,5.591957,-15.946285,-1.199240,117.349177,-83.467806,-111.395806,9.763163,0.997625,-1.523077,0,0.003466548,0
1786125688.481931,0.000747,0.000291,-0.001982,0.017578,0.004883,-0.997559,0.989122,0.046964,-0.139349,-0.003595,0.688824,0.073224,-0.721221,-0.000037,5.605779,-15.981666,-1.203995,116.827177,-83.505798,-110.884744,9.763858,0.996517,-1.510220,0,0.003462861,0
1786125688.501914,0.000747,0.000691,-0.001849,0.017578,0.004883,-0.998047,0.989074,0.047072,-0.139655,-0.003603,0.689269,0.073106,-0.720807,-0.000037,5.619581,-16.016826,-1.208658,116.291471,-83.542515,-110.358737,9.764603,0.995355,-1.498661,0,0.003462439,0
1786125688.521986,0.001013,0.000425,-0.001583,0.017822,0.004395,-0.998291,0.989025,0.047181,-0.139963,-0.003609,0.689730,0.072947,-0.720383,-0.000033,5.633437,-16.052172,-1.213170,115.743522,-83.582745,-109.823578,9.765558,0.993852,-1.486916,0,0.003465952,0
1786125688.541929,0.000481,0.000425,-0.001450,0.018066,0.005127,-0.998047,0.988977,0.047287,-0.140270,-0.003616,0.690202,0.072878,-0.719938,-0.000033,5.647048,-16.087499,-1.217633,115.144787,-83.616356,-109.230486,9.766577,0.993025,-1.474208,0,0.003463053,0
1786125688.561933,0.001147,0.000558,-0.001849,0.017334,0.005615,-0.998535,0.988928,0.047398,-0.140576,-0.003624,0.690627,0.072890,-0.719529,-0.000031,5.661193,-16.122698,-1.222357,114.578346,-83.640891,-108.663022,9.766480,0.993331,-1.461906,0,0.003463457,0
1786125688.581952,0.000747,0.000291,-0.001450,0.018311,0.005127,-0.997559,0.988879,0.047506,-0.140884,-0.003630,0.691110,0.072850,-0.719069,-0.000030,5.674963,-16.158101,-1.226845,113.944774,-83.671785,-108.032661,9.767927,0.993507,-1.449453,0,0.003464461,0
1786125688.601959,0.000614,0.000158,-0.001583,0.017822,0.005615,-0.997803,0.988830,0.047614,-0.141192,-0.003637,0.691559,0.072882,-0.718634,-0.000031,5.688761,-16.193546,-1.231449,113.329462,-83.694631,-107.414842,9.768019,0.994154,-1.436634,0,0.003464663,0
1786125688.621924,0.001013,0.000291,-0.001450,0.017090,0.004639,-0.998291,0.988781,0.047723,-0.141500,-0.003643,0.691967,0.072825,-0.718246,-0.000028,5.702689,-16.228949,-1.235953,112.790021,-83.721376,-106.879846,9.767721,0.994234,-1.424926,0,0.003463004,0
1786125688.641917,0.000747,0.001224,-0.001450,0.017578,0.005615,-0.998047,0.988732,0.047832,-0.141802,-0.003649,0.692406,0.072885,-0.717817,-0.000026,5.716546,-16.263788,-1.240437,112.172214,-83.740423,-106.257122,9.768719,0.994990,-1.413399,0,0.003463002,0
1786125688.661983,0.000614,0.000291,-0.001849,0.017334,0.005127,-0.997803,0.988683,0.047940,-0.142110,-0.003658,0.692824,0.072909,-0.717412,-0.000029,5.730371,-16.299150,-1.245211,111.587920,-83.760111,-105.671216,9.768815,0.996004,-1.401421,0,0.003466086,0
1786125688.681957,0.000614,0.000824,-0.001849,0.018066,0.005859,-0.997803,0.988633,0.048048,-0.142415,-0.003666,0.693282,0.073022,-0.716957,-0.000031,5.744248,-16.334187,-1.249977,110.919673,-83.774494,-104.993964,9.769919,0.997684,-1.389962,0,0.003464466,0
1786125688.701996,0.000747,0.000824,-0.001450,0.018066,0.004639,-0.998047,0.988584,0.048156,-0.142720,-0.003672,0.693743,0.073012,-0.716513,-0.000029,5.758005,-16.369293,-1.254478,110.276785,-83.797658,-104.351835,9.770194,0.998606,-1.377745,0,0.003466057,0
1786125688.721947,0.000481,0.000691,-0.001583,0.018311,0.004639,-0.997559,0.988535,0.048262,-0.143026,-0.003679,0.694216,0.073014,-0.716054,-0.000031,5.771632,-16.404468,-1.259072,109.607884,-83.819429,-103.682875,9.770863,0.999134,-1.364738,0,0.003463509,0
1786125688.741929,0.001013,0.001224,-0.001583,0.018555,0.004883,-0.997559,0.988485,0.048371,-0.143329,-0.003685,0.694703,0.073061,-0.715577,-0.000028,5.785579,-16.439331,-1.263649,108.903999,-83.837965,-102.975068,9.771514,1.000104,-1.351769,0,0.003462856,0
1786125688.762074,0.000081,0.000691,-0.001716,0.017822,0.005371,-0.998779,0.988436,0.048477,-0.143634,-0.003693,0.695137,0.073175,-0.715143,-0.000033,5.799113,-16.474462,-1.268370,108.253032,-83.847643,-102.315221,9.771115,1.001922,-1.339803,0,0.003469365,0
