timestamp,accel_x,accel_y,accel_z,gyro_x,gyro_y,gyro_z
0.0007082240000002571,-0.0078125,0.998779296875,-0.018310546875,2.28118896484375,-0.8392333984375,0.46539306640625
0.0007567693913017592,-0.008544921875,0.998046875,-0.0185546875,2.288818359375,-0.8392333984375,0.457763671875
0.0008053147826103668,-0.00830078125,0.998291015625,-0.01806640625,2.288818359375,-0.84686279296875,0.49591064453125
0.000853860173911869,-0.007568359375,0.998779296875,-0.01806640625,2.3193359375,-0.8392333984375,0.48065185546875
0.0009024055652204765,-0.007568359375,0.998046875,-0.0185546875,2.288818359375,-0.83160400390625,0.457763671875
0.0009509509565219787,-0.00830078125,0.997802734375,-0.017333984375,2.28118896484375,-0.823974609375,0.48828125
0.0009994963478234808,-0.00830078125,0.998046875,-0.01806640625,2.28118896484375,-0.8544921875,0.51116943359375
0.0010480417391320884,-0.008544921875,0.998291015625,-0.01708984375,2.25830078125,-0.8544921875,0.51116943359375
0.0010965871304335906,-0.008056640625,0.998291015625,-0.017333984375,2.2735595703125,-0.8392333984375,0.48828125
0.0011451325217421982,-0.00830078125,0.998046875,-0.018310546875,2.28118896484375,-0.86212158203125,0.5035400390625
0.0011936779130437003,-0.008544921875,0.998046875,-0.017822265625,2.31170654296875,-0.86212158203125,0.48065185546875
0.0012422233043452025,-0.007568359375,0.998291015625,-0.01806640625,2.288818359375,-0.8392333984375,0.4730224609375
0.00129076869565381,-0.008056640625,0.998046875,-0.018310546875,2.2735595703125,-0.8544921875,0.48065185546875
0.0013393140869553122,-0.008544921875,0.998291015625,-0.01806640625,2.25067138671875,-0.86212158203125,0.48828125
0.0013878594782568143,-0.0078125,0.998779296875,-0.017578125,2.2735595703125,-0.86212158203125,0.48828125
0.001436404869565422,-0.0087890625,0.998291015625,-0.017822265625,2.288818359375,-0.8392333984375,0.49591064453125
0.001484950260866924,-0.0087890625,0.997314453125,-0.017333984375,2.28118896484375,-0.8392333984375,0.48065185546875
0.0015334956521755316,-0.008056640625,0.998046875,-0.01806640625,2.29644775390625,-0.8544921875,0.4730224609375
0.0015820410434770338,-0.0078125,0.998779296875,-0.018798828125,2.29644775390625,-0.8544921875,0.48828125
0.001630586434778536,-0.009033203125,0.998046875,-0.01806640625,2.28118896484375,-0.8544921875,0.48828125
0.0016791318260871435,-0.008056640625,0.998046875,-0.01806640625,2.29644775390625,-0.86212158203125,0.4730224609375
0.0017276772173886457,-0.008056640625,0.99853515625,-0.017822265625,2.25830078125,-0.8697509765625,0.4730224609375
0.0017762226086972532,-0.008544921875,0.998046875,-0.01806640625,2.31170654296875,-0.8544921875,0.49591064453125
0.0018247679999987554,-0.00830078125,0.998291015625,-0.0185546875,2.31170654296875,-0.86212158203125,0.5035400390625
0.0018728612173930514,-0.008056640625,0.998046875,-0.01806640625,2.28118896484375,-0.8392333984375,0.49591064453125
0.001920954434780242,-0.0087890625,0.998779296875,-0.017822265625,2.25067138671875,-0.86212158203125,0.48065185546875
0.001969047652174538,-0.0087890625,0.998291015625,-0.01806640625,2.3040771484375,-0.8697509765625,0.48065185546875
0.0020171408695617288,-0.00830078125,0.998046875,-0.018310546875,2.288818359375,-0.8544921875,0.48065185546875
0.002065234086956025,-0.008544921875,0.997802734375,-0.017822265625,2.29644775390625,-0.8697509765625,0.4730224609375
0.0021133273043432155,-0.00830078125,0.99755859375,-0.01806640625,2.28118896484375,-0.8392333984375,0.48065185546875
0.0021614205217375115,-0.0078125,0.998291015625,-0.017578125,2.29644775390625,-0.83160400390625,0.45013427734375
0.0022095137391318076,-0.008544921875,0.99853515625,-0.017578125,2.28118896484375,-0.86212158203125,0.46539306640625
0.0022576069565189982,-0.00830078125,0.998046875,-0.017578125,2.29644775390625,-0.823974609375,0.48065185546875
0.0023057001739132943,-0.00830078125,0.997802734375,-0.01806640625,2.288818359375,-0.83160400390625,0.46539306640625
0.002353793391300485,-0.008056640625,0.997802734375,-0.017333984375,2.29644775390625,-0.83160400390625,0.4730224609375
0.002401886608694781,-0.008544921875,0.9990234375,-0.01806640625,2.28118896484375,-0.8544921875,0.51116943359375
0.0024499798260819716,-0.00830078125,0.998291015625,-0.018310546875,2.288818359375,-0.86212158203125,0.49591064453125
0.0024980730434762677,-0.008544921875,0.99853515625,-0.018310546875,2.29644775390625,-0.8392333984375,0.48065185546875
0.0025461662608634583,-0.0078125,0.99853515625,-0.017578125,2.28118896484375,-0.87738037109375,0.4730224609375
0.0025942594782577544,-0.00830078125,0.998291015625,-0.0185546875,2.2735595703125,-0.8544921875,0.48065185546875
0.0026423526956520504,-0.008544921875,0.998046875,-0.017578125,2.28118896484375,-0.8697509765625,0.48828125
0.002690445913039241,-0.00830078125,0.99755859375,-0.017578125,2.28118896484375,-0.86212158203125,0.48065185546875
0.002738539130433537,-0.0087890625,0.998046875,-0.01806640625,2.3040771484375,-0.8392333984375,0.457763671875
0.0027866323478207278,-0.008056640625,0.99853515625,-0.01806640625,2.3040771484375,-0.86212158203125,0.45013427734375
0.002834725565215024,-0.00830078125,0.99853515625,-0.01806640625,2.29644775390625,-0.8544921875,0.46539306640625
0.0028828187826022145,-0.009033203125,0.997802734375,-0.017822265625,2.2735595703125,-0.86212158203125,0.48065185546875
0.0029309119999965105,-0.0078125,0.998046875,-0.01806640625,2.23541259765625,-0.8544921875,0.4730224609375
0.0029827578181809145,-0.00830078125,0.997802734375,-0.01806640625,2.28118896484375,-0.86212158203125,0.48828125
0.003034603636358213,-0.0078125,0.99853515625,-0.017822265625,2.3040771484375,-0.8392333984375,0.48065185546875
0.003086449454542617,-0.0078125,0.998779296875,-0.01806640625,2.288818359375,-0.8697509765625,0.4730224609375
0.003138295272727021,-0.00830078125,0.99853515625,-0.017822265625,2.28118896484375,-0.8544921875,0.5035400390625
0.0031901410909043193,-0.00830078125,0.998779296875,-0.01806640625,2.28118896484375,-0.83160400390625,0.48065185546875
0.0032419869090887232,-0.00830078125,0.998046875,-0.01806640625,2.2735595703125,-0.8392333984375,0.4730224609375
0.0032938327272660217,-0.008056640625,0.998046875,-0.01806640625,2.2735595703125,-0.86212158203125,0.46539306640625
0.0033456785454504256,-0.008056640625,0.998046875,-0.017578125,2.25067138671875,-0.8544921875,0.48065185546875
0.0033975243636348296,-0.00830078125,0.998046875,-0.01806640625,2.288818359375,-0.8697509765625,0.4730224609375
0.003449370181812128,-0.0087890625,0.99853515625,-0.01806640625,2.28118896484375,-0.8544921875,0.48065185546875
0.003501215999996532,-0.008544921875,0.998046875,-0.017333984375,2.32696533203125,-0.83160400390625,0.49591064453125
0.003553061818180936,-0.00830078125,0.998779296875,-0.01806640625,2.3040771484375,-0.8544921875,0.4730224609375
0.0036049076363582344,-0.008544921875,0.997802734375,-0.018798828125,2.25830078125,-0.86212158203125,0.48065185546875
0.0036567534545426383,-0.00927734375,0.998046875,-0.017578125,2.2735595703125,-0.8544921875,0.5035400390625
0.0037085992727270423,-0.008056640625,0.998046875,-0.01806640625,2.2735595703125,-0.823974609375,0.48065185546875
0.0037604450909043408,-0.00830078125,0.99755859375,-0.01806640625,2.288818359375,-0.8392333984375,0.457763671875
0.0038122909090887447,-0.008544921875,0.998046875,-0.017333984375,2.28118896484375,-0.8544921875,0.4730224609375
0.003864136727266043,-0.0087890625,0.998291015625,-0.017333984375,2.288818359375,-0.89263916015625,0.48065185546875
0.003915982545450447,-0.00830078125,0.998291015625,-0.017822265625,2.29644775390625,-0.8392333984375,0.46539306640625
0.003967828363634851,-0.008056640625,0.998291015625,-0.01806640625,2.28118896484375,-0.86212158203125,0.48828125
0.0040196741818121495,-0.00830078125,0.998046875,-0.0185546875,2.3040771484375,-0.86212158203125,0.4730224609375
0.0040715199999965535,-0.00830078125,0.998046875,-0.018310546875,2.3040771484375,-0.8544921875,0.48065185546875
0.004120122434777329,-0.00830078125,0.998291015625,-0.01806640625,2.3040771484375,-0.84686279296875,0.4730224609375
0.00416872486956521,-0.00830078125,0.998779296875,-0.018310546875,2.28118896484375,-0.8697509765625,0.49591064453125
0.004217327304345986,-0.008056640625,0.997802734375,-0.018798828125,2.288818359375,-0.8544921875,0.49591064453125
0.004265929739126761,-0.00830078125,0.998291015625,-0.018310546875,2.29644775390625,-0.8392333984375,0.46539306640625
0.004314532173907537,-0.00830078125,0.998046875,-0.017822265625,2.29644775390625,-0.83160400390625,0.49591064453125
0.004363134608695418,-0.0087890625,0.997802734375,-0.017578125,2.288818359375,-0.86212158203125,0.48828125
0.004411737043476194,-0.009033203125,0.998046875,-0.017822265625,2.28118896484375,-0.8697509765625,0.5035400390625
0.004460339478256969,-0.0087890625,0.997802734375,-0.017822265625,2.3040771484375,-0.8544921875,0.457763671875
0.004508941913037745,-0.0078125,0.9990234375,-0.018310546875,2.288818359375,-0.8697509765625,0.49591064453125
0.004557544347825626,-0.008056640625,0.998779296875,-0.017822265625,2.2735595703125,-0.87738037109375,0.48065185546875
0.004606146782606402,-0.0078125,0.998046875,-0.018310546875,2.2735595703125,-0.8544921875,0.48065185546875
0.004654749217387177,-0.008056640625,0.998046875,-0.017578125,2.2735595703125,-0.823974609375,0.457763671875
0.004703351652167953,-0.00830078125,0.99853515625,-0.017822265625,2.25830078125,-0.8544921875,0.457763671875
0.004751954086955834,-0.00830078125,0.998291015625,-0.017578125,2.2735595703125,-0.8392333984375,0.48065185546875
0.00480055652173661,-0.0078125,0.998779296875,-0.017822265625,2.3040771484375,-0.84686279296875,0.5035400390625
0.004849158956517385,-0.00830078125,0.997802734375,-0.017578125,2.288818359375,-0.823974609375,0.48828125
0.004897761391298161,-0.009033203125,0.998779296875,-0.01806640625,2.288818359375,-0.8392333984375,0.49591064453125
0.004946363826086042,-0.009033203125,0.998779296875,-0.017578125,2.288818359375,-0.8392333984375,0.49591064453125
0.004994966260866818,-0.00830078125,0.997802734375,-0.016845703125,2.28118896484375,-0.86212158203125,0.4730224609375
0.005043568695647593,-0.008056640625,0.9990234375,-0.01806640625,2.288818359375,-0.8392333984375,0.46539306640625
0.005092171130428369,-0.008056640625,0.998046875,-0.017578125,2.28118896484375,-0.84686279296875,0.48065185546875
0.00514077356521625,-0.00830078125,0.998291015625,-0.01806640625,2.29644775390625,-0.84686279296875,0.49591064453125
0.005189375999997026,-0.008056640625,0.998291015625,-0.01806640625,2.288818359375,-0.8544921875,0.48065185546875
0.005237797565214919,-0.00830078125,0.998046875,-0.018310546875,2.28118896484375,-0.8697509765625,0.49591064453125
0.005286219130432812,-0.00830078125,0.998779296875,-0.017578125,2.26593017578125,-0.86212158203125,0.49591064453125
0.005334640695650705,-0.00830078125,0.998779296875,-0.017333984375,2.3040771484375,-0.8697509765625,0.4730224609375
0.0053830622608685985,-0.008544921875,0.998046875,-0.017822265625,2.288818359375,-0.83160400390625,0.5035400390625
0.005431483826086492,-0.008544921875,0.997802734375,-0.018310546875,2.29644775390625,-0.84686279296875,0.48828125
0.005479905391304385,-0.008544921875,0.998046875,-0.01806640625,2.2735595703125,-0.83160400390625,0.457763671875
0.005528326956522278,-0.008544921875,0.99853515625,-0.017822265625,2.2735595703125,-0.8697509765625,0.4730224609375
0.005576748521740171,-0.00830078125,0.998291015625,-0.018310546875,2.288818359375,-0.8697509765625,0.45013427734375
0.0056251700869580645,-0.0078125,0.998291015625,-0.017822265625,2.3040771484375,-0.8697509765625,0.5035400390625
0.005673591652175958,-0.007568359375,0.99853515625,-0.01806640625,2.3040771484375,-0.8544921875,0.48065185546875
0.005722013217393851,-0.007568359375,0.998291015625,-0.018310546875,2.29644775390625,-0.84686279296875,0.46539306640625
0.005770434782604639,-0.008544921875,0.998291015625,-0.01806640625,2.288818359375,-0.8544921875,0.4730224609375
0.005818856347822532,-0.008056640625,0.998779296875,-0.017822265625,2.2735595703125,-0.8697509765625,0.49591064453125
0.005867277913040425,-0.008056640625,0.997802734375,-0.017822265625,2.29644775390625,-0.8544921875,0.48065185546875
0.005915699478258318,-0.008544921875,0.99853515625,-0.017578125,2.3040771484375,-0.8544921875,0.48065185546875
0.0059641210434762115,-0.008544921875,0.997802734375,-0.018798828125,2.2735595703125,-0.87738037109375,0.48828125
0.006012542608694105,-0.00830078125,0.998291015625,-0.01806640625,2.28118896484375,-0.84686279296875,0.51116943359375
0.006060964173911998,-0.00830078125,0.99853515625,-0.01806640625,2.2735595703125,-0.8392333984375,0.51116943359375
0.006109385739129891,-0.008056640625,0.998779296875,-0.017822265625,2.25830078125,-0.8544921875,0.49591064453125
0.006157807304347784,-0.008056640625,0.99951171875,-0.01806640625,2.3040771484375,-0.84686279296875,0.48828125
0.0062062288695656775,-0.00830078125,0.998046875,-0.018310546875,2.29644775390625,-0.823974609375,0.4730224609375
0.006254650434783571,-0.008056640625,0.998046875,-0.01806640625,2.28118896484375,-0.86212158203125,0.5035400390625
0.006303072000001464,-0.0087890625,0.998779296875,-0.01806640625,2.3040771484375,-0.8544921875,0.5035400390625
0.006355679999998642,-0.008544921875,0.99853515625,-0.01806640625,2.288818359375,-0.8697509765625,0.457763671875
0.006408288000002926,-0.00830078125,0.99853515625,-0.017333984375,2.28118896484375,-0.8544921875,0.48065185546875
0.006460896000000105,-0.008544921875,0.998046875,-0.01806640625,2.288818359375,-0.83160400390625,0.457763671875
0.006513504000004389,-0.00830078125,0.998046875,-0.017578125,2.25830078125,-0.8544921875,0.4730224609375
0.006566112000001567,-0.007568359375,0.99853515625,-0.017333984375,2.28118896484375,-0.8392333984375,0.5035400390625
0.006618719999998746,-0.0078125,0.998046875,-0.017822265625,2.29644775390625,-0.8697509765625,0.4730224609375
0.0066713280000030295,-0.008056640625,0.99853515625,-0.01806640625,2.28118896484375,-0.885009765625,0.51116943359375
0.006723936000000208,-0.0078125,0.998291015625,-0.01806640625,2.288818359375,-0.8697509765625,0.48065185546875
0.006776544000004492,-0.00830078125,0.99755859375,-0.017578125,2.28118896484375,-0.8544921875,0.4425048828125
0.00682915200000167,-0.00830078125,0.998291015625,-0.0185546875,2.25830078125,-0.84686279296875,0.48828125
0.006881759999998849,-0.00830078125,0.997802734375,-0.0185546875,2.3193359375,-0.86212158203125,0.46539306640625
0.006934368000003133,-0.008544921875,0.99853515625,-0.017578125,2.32696533203125,-0.87738037109375,0.48065185546875
0.006986976000000311,-0.007568359375,0.999267578125,-0.017822265625,2.3040771484375,-0.87738037109375,0.5035400390625
0.007039584000004595,-0.008056640625,0.998046875,-0.017578125,2.288818359375,-0.84686279296875,0.46539306640625
0.0070921920000017735,-0.00830078125,0.998779296875,-0.017578125,2.26593017578125,-0.8392333984375,0.4730224609375
0.007144800000006057,-0.008544921875,0.99853515625,-0.01708984375,2.28118896484375,-0.8697509765625,0.457763671875
0.007197408000003236,-0.008544921875,0.9990234375,-0.01806640625,2.2735595703125,-0.8544921875,0.46539306640625
0.007250016000000414,-0.008544921875,0.998779296875,-0.0185546875,2.3040771484375,-0.86212158203125,0.4730224609375
0.007302624000004698,-0.0087890625,0.99853515625,-0.018310546875,2.3040771484375,-0.87738037109375,0.46539306640625
0.007355232000001877,-0.008544921875,0.998046875,-0.017578125,2.29644775390625,-0.86212158203125,0.45013427734375
0.007407840000006161,-0.007568359375,0.998046875,-0.01806640625,2.3040771484375,-0.8544921875,0.48065185546875
0.007460448000003339,-0.0087890625,0.998046875,-0.018310546875,2.3040771484375,-0.8697509765625,0.49591064453125
0.017223264000001848,-0.008544921875,0.997802734375,-0.017578125,2.3040771484375,-0.8392333984375,0.48065185546875
0.028060127999999906,-0.0078125,0.99853515625,-0.01806640625,2.3040771484375,-0.8697509765625,0.457763671875
0.03783651199999838,-0.008544921875,0.99853515625,-0.018310546875,2.3193359375,-0.87738037109375,0.46539306640625
0.04758531200000249,-0.007568359375,0.998046875,-0.017578125,2.288818359375,-0.885009765625,0.46539306640625
0.05732889600000135,-0.008544921875,0.998291015625,-0.017578125,2.2735595703125,-0.86212158203125,0.4730224609375
0.06720150399999625,-0.0087890625,0.99853515625,-0.01806640625,2.29644775390625,-0.84686279296875,0.46539306640625
0.07805971199999817,-0.00830078125,0.998046875,-0.017578125,2.28118896484375,-0.86212158203125,0.4730224609375
0.08782553599999687,-0.008544921875,0.998046875,-0.017822265625,2.25830078125,-0.86212158203125,0.4730224609375
0.09764275199999872,-0.00830078125,0.998046875,-0.017822265625,2.29644775390625,-0.87738037109375,0.46539306640625
0.10751571200000143,-0.00830078125,0.998291015625,-0.018310546875,2.2735595703125,-0.885009765625,0.48065185546875
0.11732057599999735,-0.00830078125,0.998046875,-0.017822265625,2.29644775390625,-0.8544921875,0.48065185546875
0.12819087999999823,-0.008056640625,0.99853515625,-0.018310546875,2.26593017578125,-0.87738037109375,0.4730224609375
0.13806464000000318,-0.008056640625,0.998291015625,-0.017578125,2.28118896484375,-0.885009765625,0.4730224609375
0.14786393600000025,-0.00830078125,0.997802734375,-0.017578125,2.29644775390625,-0.87738037109375,0.4730224609375
0.15767411200000225,-0.00830078125,0.998291015625,-0.017333984375,2.25830078125,-0.90789794921875,0.4730224609375
0.1674832639999977,-0.008056640625,0.99853515625,-0.01708984375,2.288818359375,-0.885009765625,0.5035400390625
0.17725388800000275,-0.00830078125,0.998291015625,-0.01806640625,2.28118896484375,-0.87738037109375,0.48065185546875
0.18818041600000157,-0.008056640625,0.998291015625,-0.017822265625,2.29644775390625,-0.86212158203125,0.5035400390625
0.19801775999999904,-0.00830078125,0.997802734375,-0.017578125,2.31170654296875,-0.8544921875,0.5035400390625
0.20713119999999918,-0.0078125,0.99853515625,-0.01806640625,2.288818359375,-0.86212158203125,0.48828125
0.2179727360000001,-0.00830078125,0.998046875,-0.017822265625,2.28118896484375,-0.8544921875,0.51116943359375
0.22771020799999775,-0.00830078125,0.99853515625,-0.0185546875,2.288818359375,-0.8392333984375,0.48065185546875
0.23744672000000122,-0.00830078125,0.9990234375,-0.0185546875,2.29644775390625,-0.885009765625,0.4730224609375
0.24719686400000285,-0.008056640625,0.998779296875,-0.017822265625,2.31170654296875,-0.86212158203125,0.48065185546875
0.25802569599999714,-0.008544921875,0.998046875,-0.017822265625,2.28118896484375,-0.8697509765625,0.4730224609375
0.26779846400000196,-0.008544921875,0.99853515625,-0.017578125,2.28118896484375,-0.86212158203125,0.48065185546875
0.2775717439999994,-0.00830078125,0.998291015625,-0.017822265625,2.288818359375,-0.8544921875,0.4730224609375
0.28731750400000067,-0.0078125,0.998291015625,-0.017578125,2.26593017578125,-0.86212158203125,0.49591064453125
0.2972826239999975,-0.00830078125,0.998779296875,-0.017822265625,2.3040771484375,-0.86212158203125,0.48065185546875
0.3073131840000016,-0.008544921875,0.99853515625,-0.017822265625,2.3040771484375,-0.87738037109375,0.46539306640625
0.3172971839999974,-0.008544921875,0.998046875,-0.017333984375,2.29644775390625,-0.885009765625,0.5035400390625
0.3281818560000005,-0.0078125,0.997802734375,-0.017578125,2.25830078125,-0.8697509765625,0.46539306640625
0.33799135999999663,-0.00830078125,0.99853515625,-0.018310546875,2.26593017578125,-0.8544921875,0.4730224609375
0.34783791999999636,-0.008056640625,0.99853515625,-0.01806640625,2.288818359375,-0.86212158203125,0.48065185546875
0.35753465599999856,-0.00830078125,0.99853515625,-0.017578125,2.26593017578125,-0.86212158203125,0.51116943359375
0.36725612800000107,-0.00830078125,0.998046875,-0.018310546875,2.28118896484375,-0.86212158203125,0.49591064453125
0.3781093759999976,-0.008544921875,0.998046875,-0.017578125,2.28118896484375,-0.86212158203125,0.49591064453125
0.3878525439999976,-0.00830078125,0.998291015625,-0.0185546875,2.28118896484375,-0.8392333984375,0.49591064453125
0.3976096319999982,-0.0078125,0.998291015625,-0.01806640625,2.3193359375,-0.84686279296875,0.48065185546875
0.40735887999999676,-0.00830078125,0.998291015625,-0.018310546875,2.288818359375,-0.86212158203125,0.48065185546875
0.41712272000000183,-0.008544921875,0.997802734375,-0.017822265625,2.28118896484375,-0.86212158203125,0.46539306640625
0.4279708159999984,-0.0078125,0.99853515625,-0.017578125,2.28118896484375,-0.8697509765625,0.457763671875
0.43771555200000023,-0.00830078125,0.99853515625,-0.01806640625,2.2735595703125,-0.8544921875,0.457763671875
0.4474791999999965,-0.00830078125,0.99853515625,-0.018310546875,2.288818359375,-0.86212158203125,0.5035400390625
0.4572201920000012,-0.008544921875,0.997802734375,-0.018310546875,2.288818359375,-0.8697509765625,0.457763671875
0.4680538559999974,-0.007080078125,0.998291015625,-0.01806640625,2.288818359375,-0.83160400390625,0.5035400390625
0.4777960640000032,-0.007568359375,0.99853515625,-0.0185546875,2.288818359375,-0.84686279296875,0.48065185546875
0.48757664000000034,-0.00830078125,0.99853515625,-0.01806640625,2.28118896484375,-0.8544921875,0.48828125
0.49733846400000203,-0.007568359375,0.997802734375,-0.01806640625,2.2735595703125,-0.84686279296875,0.48828125
0.5072029439999994,-0.008056640625,0.998046875,-0.01806640625,2.25830078125,-0.8544921875,0.46539306640625
0.5180864960000022,-0.008544921875,0.998291015625,-0.01806640625,2.2735595703125,-0.8544921875,0.48828125
0.5278255999999999,-0.00830078125,0.998291015625,-0.01806640625,2.288818359375,-0.83160400390625,0.4730224609375
0.5375913279999978,-0.00830078125,0.9990234375,-0.017822265625,2.3040771484375,-0.84686279296875,0.46539306640625
0.5473248959999992,-0.00830078125,0.99853515625,-0.018310546875,2.26593017578125,-0.86212158203125,0.457763671875
0.5570877119999977,-0.0087890625,0.9990234375,-0.01806640625,2.288818359375,-0.8697509765625,0.48065185546875
0.5679349119999983,-0.00830078125,0.998046875,-0.01806640625,2.28118896484375,-0.8544921875,0.4730224609375
0.577672800000002,-0.00830078125,0.998046875,-0.017822265625,2.2735595703125,-0.823974609375,0.49591064453125
0.5874431680000001,-0.008544921875,0.998779296875,-0.018310546875,2.2735595703125,-0.8392333984375,0.4730224609375
0.5971696319999964,-0.008544921875,0.99853515625,-0.0185546875,2.2735595703125,-0.84686279296875,0.46539306640625
0.6079251199999973,-0.007568359375,0.998046875,-0.01806640625,2.288818359375,-0.8544921875,0.4730224609375
0.6178861120000008,-0.008056640625,0.997802734375,-0.01806640625,2.2735595703125,-0.86212158203125,0.46539306640625
0.6278180799999973,-0.008056640625,0.99853515625,-0.017578125,2.28118896484375,-0.84686279296875,0.4730224609375
0.6375744639999965,-0.008544921875,0.998779296875,-0.017578125,2.2735595703125,-0.8392333984375,0.48065185546875
0.6473174719999975,-0.0087890625,0.9990234375,-0.017822265625,2.25830078125,-0.8544921875,0.4730224609375
0.6581763519999981,-0.0078125,0.998046875,-0.018310546875,2.2735595703125,-0.83160400390625,0.4730224609375
0.6679365760000024,-0.008056640625,0.99853515625,-0.0185546875,2.28118896484375,-0.8544921875,0.49591064453125
0.6776655359999992,-0.0078125,0.998046875,-0.018310546875,2.28118896484375,-0.8544921875,0.51116943359375
0.687538656000001,-0.0078125,0.998779296875,-0.01806640625,2.28118896484375,-0.8392333984375,0.46539306640625
0.697339423999999,-0.008544921875,0.998046875,-0.018798828125,2.29644775390625,-0.86212158203125,0.48065185546875
0.707137760000002,-0.008056640625,0.99853515625,-0.017822265625,2.288818359375,-0.8392333984375,0.48065185546875
0.7179858880000012,-0.0078125,0.998291015625,-0.0185546875,2.2735595703125,-0.84686279296875,0.46539306640625
0.727734624,-0.0078125,0.99853515625,-0.018310546875,2.25830078125,-0.86212158203125,0.457763671875
0.7375513280000021,-0.0078125,0.99853515625,-0.0185546875,2.288818359375,-0.8697509765625,0.457763671875
0.7473903679999978,-0.008056640625,0.997802734375,-0.01904296875,2.3193359375,-0.86212158203125,0.4730224609375
0.7571656000000004,-0.0087890625,0.997802734375,-0.01806640625,2.31170654296875,-0.86212158203125,0.48828125
0.7680015359999999,-0.00830078125,0.99853515625,-0.017822265625,2.29644775390625,-0.8392333984375,0.49591064453125
0.7777545920000009,-0.0078125,0.998291015625,-0.018310546875,2.288818359375,-0.84686279296875,0.48065185546875
0.7874988160000029,-0.008056640625,0.998291015625,-0.018310546875,2.288818359375,-0.86212158203125,0.48065185546875
0.7972387519999984,-0.008544921875,0.997802734375,-0.01806640625,2.2735595703125,-0.8544921875,0.5035400390625
0.8080784960000003,-0.0087890625,0.998291015625,-0.017822265625,2.28118896484375,-0.8697509765625,0.49591064453125
0.8178121919999981,-0.00830078125,0.997802734375,-0.017578125,2.2735595703125,-0.8392333984375,0.4730224609375
0.8275515520000027,-0.00732421875,0.997802734375,-0.017578125,2.3040771484375,-0.8392333984375,0.4730224609375
0.8374445760000029,-0.008544921875,0.997802734375,-0.017578125,2.2735595703125,-0.8544921875,0.48065185546875
0.8473059199999966,-0.008544921875,0.99853515625,-0.017822265625,2.2735595703125,-0.8544921875,0.4730224609375
0.8570910079999976,-0.008544921875,0.99853515625,-0.017578125,2.2735595703125,-0.8697509765625,0.48065185546875
0.8679535679999972,-0.0087890625,0.99853515625,-0.017822265625,2.28118896484375,-0.8697509765625,0.46539306640625
0.877699776,-0.00830078125,0.998046875,-0.017822265625,2.29644775390625,-0.84686279296875,0.45013427734375
0.8874487679999987,-0.008544921875,0.998291015625,-0.017578125,2.3040771484375,-0.8392333984375,0.4730224609375
0.8972053760000023,-0.008056640625,0.99853515625,-0.017333984375,2.32696533203125,-0.86212158203125,0.4730224609375
0.9080374719999966,-0.00830078125,0.998046875,-0.01806640625,2.288818359375,-0.8544921875,0.46539306640625
0.9178099840000016,-0.009033203125,0.998291015625,-0.01806640625,2.288818359375,-0.86212158203125,0.46539306640625
0.9275726719999966,-0.00830078125,0.998046875,-0.0185546875,2.25830078125,-0.87738037109375,0.457763671875
0.9373446720000018,-0.00830078125,0.998291015625,-0.01806640625,2.28118896484375,-0.84686279296875,0.48065185546875
0.9471009279999976,-0.007568359375,0.99755859375,-0.01806640625,2.288818359375,-0.86212158203125,0.46539306640625
0.9579447360000017,-0.008056640625,0.998291015625,-0.018310546875,2.288818359375,-0.8697509765625,0.5035400390625
0.9676793599999982,-0.00830078125,0.998779296875,-0.018798828125,2.28118896484375,-0.83160400390625,0.49591064453125
0.977440768000001,-0.007568359375,0.99853515625,-0.0185546875,2.288818359375,-0.8392333984375,0.4730224609375
0.9872063039999972,-0.0078125,0.99853515625,-0.01806640625,2.288818359375,-0.8392333984375,0.48828125
0.9973067199999974,-0.0078125,0.998046875,-0.01806640625,2.29644775390625,-0.87738037109375,0.49591064453125
1.0075369280000004,-0.008544921875,0.998046875,-0.01806640625,2.28118896484375,-0.86212158203125,0.4730224609375
1.0173116799999988,-0.008544921875,0.99853515625,-0.01806640625,2.288818359375,-0.8544921875,0.46539306640625
1.0280644159999994,-0.008056640625,0.997802734375,-0.0185546875,2.288818359375,-0.8697509765625,0.48065185546875
1.0378209280000021,-0.00830078125,0.99853515625,-0.017822265625,2.3040771484375,-0.8544921875,0.4730224609375
1.0476390079999973,-0.00830078125,0.998779296875,-0.017822265625,2.28118896484375,-0.8544921875,0.48065185546875
1.0577629439999967,-0.00830078125,0.998291015625,-0.018798828125,2.29644775390625,-0.87738037109375,0.46539306640625
1.067576287999998,-0.008056640625,0.998291015625,-0.01806640625,2.28118896484375,-0.8544921875,0.49591064453125
1.0773392959999981,-0.008544921875,0.997802734375,-0.017578125,2.2735595703125,-0.8392333984375,0.5035400390625
1.0870917439999985,-0.0078125,0.998046875,-0.0185546875,2.31170654296875,-0.823974609375,0.48828125
1.0979580480000024,-0.008056640625,0.998291015625,-0.017822265625,2.29644775390625,-0.8544921875,0.5035400390625
1.1076923520000008,-0.008056640625,0.99755859375,-0.017578125,2.288818359375,-0.86212158203125,0.46539306640625
1.1175981760000013,-0.0087890625,0.99755859375,-0.0185546875,2.29644775390625,-0.885009765625,0.46539306640625
1.127340703999998,-0.00830078125,0.998046875,-0.01806640625,2.3345947265625,-0.8544921875,0.457763671875
1.1370912000000004,-0.00830078125,0.998779296875,-0.017578125,2.26593017578125,-0.86212158203125,0.48065185546875
1.1479612480000014,-0.009033203125,0.99853515625,-0.01806640625,2.25830078125,-0.86212158203125,0.49591064453125
1.157689984000001,-0.008544921875,0.997802734375,-0.018310546875,2.28118896484375,-0.8544921875,0.5035400390625
1.1674383679999991,-0.008056640625,0.998046875,-0.0185546875,2.288818359375,-0.89263916015625,0.4730224609375
1.1772082239999975,-0.0078125,0.997802734375,-0.01806640625,2.288818359375,-0.86212158203125,0.49591064453125
1.1880440640000032,-0.008544921875,0.997802734375,-0.017333984375,2.29644775390625,-0.87738037109375,0.48065185546875
1.1978067840000008,-0.00830078125,0.99853515625,-0.0185546875,2.29644775390625,-0.84686279296875,0.48065185546875
1.2078110080000002,-0.008544921875,0.99853515625,-0.01806640625,2.288818359375,-0.84686279296875,0.457763671875
1.217588671999998,-0.008544921875,0.998046875,-0.017333984375,2.288818359375,-0.8392333984375,0.48828125
1.2273231039999999,-0.00830078125,0.998291015625,-0.017822265625,2.31170654296875,-0.8392333984375,0.46539306640625
1.2381786560000023,-0.008056640625,0.998291015625,-0.01806640625,2.3193359375,-0.8544921875,0.49591064453125
1.247178464000001,-0.008056640625,0.998046875,-0.018310546875,2.28118896484375,-0.84686279296875,0.48065185546875
1.2581280639999974,-0.00830078125,0.998046875,-0.01806640625,2.288818359375,-0.83160400390625,0.46539306640625
1.2679860160000018,-0.0087890625,0.998291015625,-0.017578125,2.288818359375,-0.8544921875,0.46539306640625
1.2777265920000005,-0.0078125,0.997802734375,-0.017333984375,2.31170654296875,-0.8544921875,0.4730224609375
1.2874698239999987,-0.0078125,0.997802734375,-0.01806640625,2.28118896484375,-0.86212158203125,0.49591064453125
1.2972224000000026,-0.008544921875,0.998291015625,-0.01806640625,2.3193359375,-0.8544921875,0.46539306640625
1.3074225279999965,-0.0087890625,0.99755859375,-0.01806640625,2.3345947265625,-0.8544921875,0.4730224609375
1.317222688000001,-0.00830078125,0.998291015625,-0.017822265625,2.32696533203125,-0.8544921875,0.46539306640625
1.3280514559999972,-0.00830078125,0.998779296875,-0.017822265625,2.2735595703125,-0.8392333984375,0.457763671875
1.3377807039999965,-0.008544921875,0.99853515625,-0.01806640625,2.28118896484375,-0.8544921875,0.48065185546875
1.347486336000003,-0.008544921875,0.998779296875,-0.017578125,2.3040771484375,-0.8544921875,0.5035400390625
1.3572181119999982,-0.008056640625,0.997802734375,-0.017578125,2.3040771484375,-0.8392333984375,0.48065185546875
1.368042592000002,-0.0087890625,0.99853515625,-0.017578125,2.29644775390625,-0.8544921875,0.457763671875
1.3778127360000028,-0.0087890625,0.998046875,-0.017822265625,2.28118896484375,-0.8697509765625,0.49591064453125
1.3875719999999987,-0.0087890625,0.99853515625,-0.018310546875,2.29644775390625,-0.8697509765625,0.51116943359375
1.3973275520000001,-0.00830078125,0.998291015625,-0.01806640625,2.288818359375,-0.86212158203125,0.48828125
1.4081832959999971,-0.00830078125,0.997802734375,-0.018310546875,2.29644775390625,-0.8544921875,0.457763671875
1.4179440320000012,-0.007568359375,0.99755859375,-0.0185546875,2.3040771484375,-0.8697509765625,0.5035400390625
1.427682304000001,-0.00830078125,0.99853515625,-0.017578125,2.288818359375,-0.84686279296875,0.5035400390625
1.4374432319999997,-0.009033203125,0.99853515625,-0.018310546875,2.29644775390625,-0.86212158203125,0.48065185546875
1.447212032000003,-0.0078125,0.998779296875,-0.01806640625,2.29644775390625,-0.8392333984375,0.4730224609375
1.4580448319999988,-0.0078125,0.99853515625,-0.01806640625,2.29644775390625,-0.8392333984375,0.5035400390625
1.4678215360000024,-0.008056640625,0.998779296875,-0.018310546875,2.32696533203125,-0.84686279296875,0.5340576171875
1.477575360000003,-0.00830078125,0.998291015625,-0.01806640625,2.31170654296875,-0.83160400390625,0.49591064453125
1.4873050559999967,-0.008544921875,0.998046875,-0.018310546875,2.288818359375,-0.86212158203125,0.48065185546875
1.4981280000000012,-0.00830078125,0.99853515625,-0.01806640625,2.3040771484375,-0.83160400390625,0.457763671875
1.5078631359999974,-0.008544921875,0.998046875,-0.01806640625,2.29644775390625,-0.823974609375,0.48065185546875
1.5175904959999968,-0.008544921875,0.998779296875,-0.017333984375,2.29644775390625,-0.84686279296875,0.48065185546875
1.5273261439999999,-0.008544921875,0.998291015625,-0.017822265625,2.31170654296875,-0.8544921875,0.51116943359375
1.5381862400000017,-0.00830078125,0.998779296875,-0.018310546875,2.29644775390625,-0.8544921875,0.48065185546875
1.547947520000001,-0.008544921875,0.997802734375,-0.017822265625,2.288818359375,-0.823974609375,0.4730224609375
1.5576818879999976,-0.008056640625,0.99853515625,-0.018310546875,2.288818359375,-0.87738037109375,0.4730224609375
1.5674467199999995,-0.00830078125,0.998779296875,-0.018310546875,2.32696533203125,-0.84686279296875,0.45013427734375
1.5772142399999964,-0.0087890625,0.998046875,-0.01806640625,2.288818359375,-0.81634521484375,0.48065185546875
1.5880417919999985,-0.00830078125,0.99853515625,-0.017578125,2.288818359375,-0.8392333984375,0.48065185546875
1.5977684479999965,-0.0087890625,0.998291015625,-0.01806640625,2.29644775390625,-0.86212158203125,0.48065185546875
1.6074960320000002,-0.008544921875,0.997802734375,-0.01806640625,2.3040771484375,-0.84686279296875,0.46539306640625
1.617221248,-0.0078125,0.998046875,-0.01806640625,2.2735595703125,-0.8697509765625,0.4730224609375
1.6280391999999964,-0.00830078125,0.998046875,-0.017822265625,2.2735595703125,-0.86212158203125,0.457763671875
1.6377634879999974,-0.00830078125,0.998046875,-0.01708984375,2.2735595703125,-0.86212158203125,0.46539306640625
1.6474902719999989,-0.00830078125,0.998291015625,-0.017333984375,2.28118896484375,-0.8697509765625,0.48828125
1.6572150719999996,-0.009033203125,0.997802734375,-0.017822265625,2.3040771484375,-0.86212158203125,0.46539306640625
1.668026656000002,-0.00830078125,0.99755859375,-0.01806640625,2.29644775390625,-0.823974609375,0.49591064453125
1.6777483839999974,-0.0078125,0.998291015625,-0.017578125,2.28118896484375,-0.84686279296875,0.48065185546875
1.6874702719999988,-0.007568359375,0.997314453125,-0.017578125,2.288818359375,-0.86212158203125,0.4730224609375
1.697203776000002,-0.008544921875,0.998046875,-0.01806640625,2.3193359375,-0.8544921875,0.48065185546875
1.7080550720000005,-0.00830078125,0.998779296875,-0.01806640625,2.3040771484375,-0.84686279296875,0.4730224609375
1.7178179200000017,-0.0087890625,0.998779296875,-0.018310546875,2.288818359375,-0.83160400390625,0.48828125
1.7275762880000016,-0.008544921875,0.998046875,-0.01806640625,2.29644775390625,-0.8392333984375,0.5035400390625
1.7373290880000027,-0.008056640625,0.997802734375,-0.01708984375,2.3040771484375,-0.86212158203125,0.4730224609375
1.7471103680000013,-0.0087890625,0.997802734375,-0.017578125,2.29644775390625,-0.87738037109375,0.49591064453125
1.7579567679999997,-0.008056640625,0.998291015625,-0.017822265625,2.288818359375,-0.8544921875,0.49591064453125
1.7676880320000024,-0.00830078125,0.998046875,-0.017822265625,2.29644775390625,-0.87738037109375,0.51116943359375
1.7774483520000004,-0.008544921875,0.99853515625,-0.0185546875,2.2735595703125,-0.8392333984375,0.51116943359375
1.7873997439999982,-0.008544921875,0.998291015625,-0.01806640625,2.28118896484375,-0.86212158203125,0.4730224609375
1.7971774720000013,-0.008544921875,0.997802734375,-0.01806640625,2.29644775390625,-0.8544921875,0.4730224609375
1.8081260160000028,-0.008544921875,0.99853515625,-0.017578125,2.2735595703125,-0.86212158203125,0.4730224609375
1.8178876799999983,-0.0087890625,0.998046875,-0.017333984375,2.29644775390625,-0.8544921875,0.46539306640625
1.8276293759999973,-0.0078125,0.998046875,-0.018310546875,2.288818359375,-0.86212158203125,0.48065185546875
1.8377946239999972,-0.0078125,0.99755859375,-0.018310546875,2.288818359375,-0.83160400390625,0.48065185546875
1.8475864959999981,-0.00830078125,0.998291015625,-0.017822265625,2.3040771484375,-0.8392333984375,0.4730224609375
1.8573373759999967,-0.00830078125,0.998046875,-0.017578125,2.28118896484375,-0.8544921875,0.48065185546875
1.8681840960000002,-0.0078125,0.998046875,-0.017578125,2.2735595703125,-0.8544921875,0.5035400390625
1.8779663039999974,-0.00830078125,0.998046875,-0.018310546875,2.2735595703125,-0.86212158203125,0.48065185546875
1.887693824000003,-0.00830078125,0.998046875,-0.018310546875,2.288818359375,-0.8392333984375,0.48065185546875
1.8974288000000001,-0.008056640625,0.99853515625,-0.01806640625,2.25830078125,-0.8544921875,0.48065185546875
1.907180959999998,-0.008544921875,0.998291015625,-0.0185546875,2.29644775390625,-0.84686279296875,0.48065185546875
1.9179999679999966,-0.009033203125,0.998046875,-0.017822265625,2.2735595703125,-0.83160400390625,0.4730224609375
1.9277346240000028,-0.008544921875,0.997802734375,-0.017578125,2.3040771484375,-0.8544921875,0.46539306640625
1.9374819519999988,-0.0087890625,0.998291015625,-0.017822265625,2.288818359375,-0.8544921875,0.49591064453125
1.9472465599999964,-0.008544921875,0.998291015625,-0.0185546875,2.29644775390625,-0.8544921875,0.5035400390625
1.958072031999997,-0.008544921875,0.998291015625,-0.017333984375,2.29644775390625,-0.8544921875,0.4730224609375
1.9678414400000008,-0.008056640625,0.9990234375,-0.017822265625,2.28118896484375,-0.8392333984375,0.51116943359375
1.9775870080000004,-0.008544921875,0.998046875,-0.017822265625,2.28118896484375,-0.8544921875,0.48065185546875
1.9873168319999976,-0.00830078125,0.998046875,-0.017578125,2.29644775390625,-0.86212158203125,0.49591064453125
1.998143712000001,-0.0087890625,0.99853515625,-0.01806640625,2.3193359375,-0.86212158203125,0.46539306640625
2.007874207999997,-0.00830078125,0.998779296875,-0.01806640625,2.29644775390625,-0.8392333984375,0.4730224609375
2.017619840000002,-0.008544921875,0.998046875,-0.01806640625,2.3040771484375,-0.84686279296875,0.48065185546875
2.0273608319999994,-0.009033203125,0.99853515625,-0.01806640625,2.3040771484375,-0.8544921875,0.48828125
2.0371599679999974,-0.008056640625,0.99853515625,-0.018310546875,2.29644775390625,-0.8544921875,0.4730224609375
2.047998176,-0.008056640625,0.998046875,-0.017822265625,2.31170654296875,-0.84686279296875,0.4730224609375
2.0577296319999974,-0.00830078125,0.998291015625,-0.01806640625,2.25830078125,-0.8697509765625,0.48065185546875
2.0677721919999996,-0.00830078125,0.998046875,-0.017822265625,2.28118896484375,-0.8697509765625,0.5035400390625
2.0775288319999987,-0.00830078125,0.998046875,-0.01806640625,2.26593017578125,-0.84686279296875,0.4730224609375
2.087260864000001,-0.008544921875,0.997802734375,-0.0185546875,2.288818359375,-0.8544921875,0.4730224609375
2.0981045759999972,-0.008544921875,0.998046875,-0.018310546875,2.288818359375,-0.8392333984375,0.48828125
2.1078357119999964,-0.00927734375,0.998291015625,-0.017578125,2.3040771484375,-0.8544921875,0.46539306640625
2.1176977920000013,-0.008544921875,0.99853515625,-0.018798828125,2.29644775390625,-0.8392333984375,0.48065185546875
2.1274543359999996,-0.008544921875,0.998779296875,-0.017822265625,2.3040771484375,-0.8544921875,0.457763671875
2.137232032,-0.00830078125,0.998046875,-0.017333984375,2.288818359375,-0.8544921875,0.5035400390625
2.1480635519999964,-0.00830078125,0.998291015625,-0.017822265625,2.288818359375,-0.8544921875,0.5035400390625
2.1578499199999968,-0.008544921875,0.997802734375,-0.017822265625,2.288818359375,-0.8544921875,0.48065185546875
2.167596832000001,-0.00830078125,0.99853515625,-0.017578125,2.28118896484375,-0.8697509765625,0.5035400390625
2.177327904000002,-0.00830078125,0.998046875,-0.017578125,2.3040771484375,-0.86212158203125,0.457763671875
2.1881901439999965,-0.00830078125,0.997802734375,-0.018798828125,2.26593017578125,-0.8544921875,0.4730224609375
2.197968959999997,-0.008056640625,0.99853515625,-0.01806640625,2.28118896484375,-0.83160400390625,0.5035400390625
2.2077063039999985,-0.00830078125,0.99853515625,-0.017578125,2.26593017578125,-0.8544921875,0.48065185546875
2.217453663999997,-0.008056640625,0.998046875,-0.018310546875,2.29644775390625,-0.86212158203125,0.48065185546875
2.2272455680000007,-0.008056640625,0.998046875,-0.017822265625,2.26593017578125,-0.8392333984375,0.48065185546875
2.238084288000003,-0.008056640625,0.998046875,-0.017333984375,2.28118896484375,-0.83160400390625,0.4730224609375
2.247830976000003,-0.0087890625,0.998046875,-0.018310546875,2.28118896484375,-0.8544921875,0.46539306640625
2.2580258560000033,-0.00830078125,0.99853515625,-0.017822265625,2.32696533203125,-0.86212158203125,0.51116943359375
2.267782943999997,-0.008056640625,0.998291015625,-0.018310546875,2.3040771484375,-0.86212158203125,0.49591064453125
2.2775364479999993,-0.008544921875,0.998046875,-0.017822265625,2.3040771484375,-0.86212158203125,0.46539306640625
2.2872784639999963,-0.0078125,0.997802734375,-0.01806640625,2.28118896484375,-0.83160400390625,0.4730224609375
2.2981198080000027,-0.00830078125,0.99853515625,-0.0185546875,2.25830078125,-0.86212158203125,0.48065185546875
2.307851904000003,-0.008056640625,0.998291015625,-0.017822265625,2.28118896484375,-0.86212158203125,0.46539306640625
2.3175880000000006,-0.0078125,0.99853515625,-0.018310546875,2.288818359375,-0.8392333984375,0.46539306640625
2.3273193280000015,-0.0087890625,0.998291015625,-0.017822265625,2.3040771484375,-0.83160400390625,0.4730224609375
2.3381465599999984,-0.00830078125,0.997802734375,-0.017822265625,2.29644775390625,-0.8697509765625,0.48828125
2.347905695999998,-0.0078125,0.997802734375,-0.018310546875,2.28118896484375,-0.8697509765625,0.46539306640625
2.357655072,-0.00830078125,0.998046875,-0.01806640625,2.31170654296875,-0.84686279296875,0.4730224609375
2.367455935999999,-0.00830078125,0.99853515625,-0.01806640625,2.2735595703125,-0.84686279296875,0.46539306640625
2.377223039999997,-0.008544921875,0.99853515625,-0.01806640625,2.2735595703125,-0.8544921875,0.48065185546875
2.388054752000002,-0.008544921875,0.998291015625,-0.018310546875,2.29644775390625,-0.86212158203125,0.5035400390625
2.3977820479999963,-0.008544921875,0.997802734375,-0.01806640625,2.288818359375,-0.8392333984375,0.49591064453125
2.407501631999999,-0.00830078125,0.997802734375,-0.017822265625,2.28118896484375,-0.823974609375,0.48065185546875
2.4172355839999966,-0.00732421875,0.998291015625,-0.018310546875,2.288818359375,-0.86212158203125,0.48828125
2.4280713280000015,-0.00830078125,0.998779296875,-0.018310546875,2.28118896484375,-0.87738037109375,0.4730224609375
2.4378278080000015,-0.00830078125,0.998779296875,-0.01806640625,2.2430419921875,-0.86212158203125,0.48065185546875
2.4475899199999986,-0.00830078125,0.998046875,-0.01708984375,2.288818359375,-0.8544921875,0.4730224609375
2.4573166719999975,-0.008056640625,0.997314453125,-0.018310546875,2.3193359375,-0.8392333984375,0.49591064453125
2.468196640000002,-0.0078125,0.998046875,-0.01806640625,2.3040771484375,-0.8544921875,0.457763671875
2.477958848,-0.008056640625,0.99853515625,-0.01806640625,2.2735595703125,-0.86212158203125,0.48065185546875
2.487693024000002,-0.008544921875,0.99853515625,-0.018310546875,2.288818359375,-0.86212158203125,0.49591064453125
2.4974732800000012,-0.0078125,0.998291015625,-0.01806640625,2.3040771484375,-0.86212158203125,0.48065185546875
2.507235903999998,-0.0078125,0.998779296875,-0.018310546875,2.3040771484375,-0.8544921875,0.48828125
2.518057919999997,-0.00830078125,0.998046875,-0.018310546875,2.28118896484375,-0.885009765625,0.48828125
2.5278655039999975,-0.008544921875,0.997802734375,-0.01806640625,2.3040771484375,-0.87738037109375,0.51116943359375
2.5376699520000017,-0.00830078125,0.998291015625,-0.017822265625,2.28118896484375,-0.86212158203125,0.48828125
2.547410976000002,-0.00830078125,0.99853515625,-0.01806640625,2.25830078125,-0.8544921875,0.48065185546875
2.5571634880000005,-0.008056640625,0.998046875,-0.017822265625,2.28118896484375,-0.86212158203125,0.4730224609375
2.5679955199999966,-0.008056640625,0.99853515625,-0.017822265625,2.288818359375,-0.8544921875,0.4730224609375
2.577740800000001,-0.00830078125,0.998046875,-0.018310546875,2.26593017578125,-0.86212158203125,0.48065185546875
2.5874751039999992,-0.008056640625,0.998046875,-0.018310546875,2.288818359375,-0.8544921875,0.48828125
2.597220831999998,-0.0078125,0.998046875,-0.01806640625,2.28118896484375,-0.86212158203125,0.4730224609375
2.6080443520000003,-0.0078125,0.998291015625,-0.017822265625,2.28118896484375,-0.8544921875,0.49591064453125
2.617772991999999,-0.00830078125,0.99853515625,-0.018310546875,2.29644775390625,-0.83160400390625,0.4730224609375
2.6275212480000008,-0.0078125,0.99853515625,-0.017578125,2.28118896484375,-0.84686279296875,0.48828125
2.637255584000002,-0.008544921875,0.99853515625,-0.018310546875,2.29644775390625,-0.86212158203125,0.51116943359375
2.648079103999997,-0.008544921875,0.998046875,-0.017578125,2.29644775390625,-0.8544921875,0.48065185546875
2.657825727999999,-0.00830078125,0.998779296875,-0.018310546875,2.28118896484375,-0.86212158203125,0.48065185546875
2.6675788160000025,-0.0078125,0.998291015625,-0.018310546875,2.25830078125,-0.8544921875,0.46539306640625
2.6773320320000025,-0.008056640625,0.99853515625,-0.018798828125,2.3193359375,-0.8697509765625,0.46539306640625
2.688161248,-0.0078125,0.998291015625,-0.018310546875,2.29644775390625,-0.8392333984375,0.4730224609375
2.6979030720000026,-0.00830078125,0.998046875,-0.017822265625,2.3193359375,-0.86212158203125,0.51116943359375
2.7076435199999977,-0.008056640625,0.998291015625,-0.017578125,2.31170654296875,-0.86212158203125,0.5035400390625
2.717368671999999,-0.008056640625,0.998291015625,-0.017822265625,2.288818359375,-0.87738037109375,0.46539306640625
2.7271274240000025,-0.00830078125,0.99853515625,-0.017578125,2.3040771484375,-0.81634521484375,0.49591064453125
2.737954848000001,-0.007568359375,0.998291015625,-0.017333984375,2.29644775390625,-0.86212158203125,0.48065185546875
2.747721151999997,-0.008056640625,0.998291015625,-0.017578125,2.28118896484375,-0.8544921875,0.48065185546875
2.7574592960000004,-0.00830078125,0.998046875,-0.018310546875,2.25830078125,-0.8392333984375,0.48828125
2.7672269759999963,-0.00830078125,0.99853515625,-0.018310546875,2.28118896484375,-0.86212158203125,0.457763671875
2.7780615360000027,-0.007568359375,0.998291015625,-0.01806640625,2.29644775390625,-0.86212158203125,0.48065185546875
2.7878427839999986,-0.008544921875,0.996826171875,-0.017578125,2.26593017578125,-0.86212158203125,0.45013427734375
2.797597695999997,-0.008056640625,0.998046875,-0.017578125,2.29644775390625,-0.8697509765625,0.4425048828125
2.807328032000001,-0.0078125,0.99853515625,-0.017578125,2.3040771484375,-0.8392333984375,0.48065185546875
2.8181499840000015,-0.00830078125,0.998779296875,-0.017578125,2.29644775390625,-0.8392333984375,0.45013427734375
2.827974816000001,-0.0078125,0.998291015625,-0.01806640625,2.288818359375,-0.86212158203125,0.48065185546875
2.837717343999998,-0.0078125,0.997802734375,-0.017822265625,2.2735595703125,-0.8697509765625,0.457763671875
2.8475374399999964,-0.00830078125,0.99853515625,-0.017822265625,2.28118896484375,-0.86212158203125,0.5035400390625
2.8572976000000025,-0.008544921875,0.998046875,-0.01708984375,2.29644775390625,-0.86212158203125,0.48065185546875
2.868119872000001,-0.008544921875,0.997802734375,-0.01806640625,2.288818359375,-0.823974609375,0.4730224609375
2.877854976000002,-0.00830078125,0.998291015625,-0.018310546875,2.2735595703125,-0.8392333984375,0.45013427734375
2.887604256000003,-0.0078125,0.998291015625,-0.01806640625,2.288818359375,-0.8392333984375,0.457763671875
2.897341695999998,-0.008544921875,0.997802734375,-0.017578125,2.31170654296875,-0.8392333984375,0.4730224609375
2.9081996159999974,-0.00830078125,0.998291015625,-0.017578125,2.288818359375,-0.86212158203125,0.49591064453125
2.9179615039999973,-0.00830078125,0.99853515625,-0.01806640625,2.31170654296875,-0.84686279296875,0.46539306640625
2.927692544000003,-0.009033203125,0.998046875,-0.01806640625,2.288818359375,-0.84686279296875,0.48828125
2.937443295999998,-0.008056640625,0.998779296875,-0.018310546875,2.29644775390625,-0.84686279296875,0.49591064453125
2.947229919999998,-0.00830078125,0.998779296875,-0.01806640625,2.31170654296875,-0.8544921875,0.48828125
2.9580672640000003,-0.00830078125,0.99853515625,-0.01806640625,2.31170654296875,-0.86212158203125,0.49591064453125
2.967834080000003,-0.008056640625,0.99853515625,-0.017822265625,2.3040771484375,-0.83160400390625,0.49591064453125
2.9775972159999995,-0.0087890625,0.99853515625,-0.017578125,2.3040771484375,-0.84686279296875,0.5035400390625
2.9873413440000007,-0.00830078125,0.998291015625,-0.017578125,2.288818359375,-0.8544921875,0.49591064453125
2.998200351999998,-0.00830078125,0.998779296875,-0.017822265625,2.26593017578125,-0.8392333984375,0.4730224609375
3.0079632320000016,-0.0078125,0.998291015625,-0.01806640625,2.3040771484375,-0.83160400390625,0.48828125
3.0177205439999994,-0.0078125,0.998046875,-0.01806640625,2.3193359375,-0.86212158203125,0.4730224609375
3.027469535999998,-0.008544921875,0.99755859375,-0.01806640625,2.288818359375,-0.86212158203125,0.48828125
3.037221535999997,-0.00830078125,0.998046875,-0.018310546875,2.288818359375,-0.86212158203125,0.4730224609375
3.0480488959999974,-0.008056640625,0.998291015625,-0.018798828125,2.29644775390625,-0.8697509765625,0.48828125
3.0577803839999973,-0.00830078125,0.99853515625,-0.018310546875,2.2735595703125,-0.8544921875,0.49591064453125
3.067513216000002,-0.008544921875,0.998291015625,-0.018310546875,2.3040771484375,-0.86212158203125,0.4730224609375
3.077241344000001,-0.00830078125,0.998046875,-0.01806640625,2.2735595703125,-0.8392333984375,0.46539306640625
3.088067488,-0.00830078125,0.997802734375,-0.01806640625,2.29644775390625,-0.8544921875,0.48065185546875
3.097835904,-0.008056640625,0.99853515625,-0.018798828125,2.31170654296875,-0.8544921875,0.48065185546875
3.1076012480000017,-0.008056640625,0.997802734375,-0.01806640625,2.29644775390625,-0.8392333984375,0.49591064453125
3.1173351039999986,-0.008544921875,0.998291015625,-0.01708984375,2.2735595703125,-0.86212158203125,0.49591064453125
3.1281562240000014,-0.008056640625,0.998291015625,-0.018310546875,2.32696533203125,-0.86212158203125,0.5035400390625
3.1378925759999987,-0.0078125,0.998291015625,-0.017822265625,2.288818359375,-0.87738037109375,0.4730224609375
3.147661888000002,-0.008544921875,0.998291015625,-0.01806640625,2.28118896484375,-0.86212158203125,0.49591064453125
3.157394656000001,-0.007568359375,0.998046875,-0.01904296875,2.25830078125,-0.8544921875,0.4730224609375
3.1671575359999977,-0.0078125,0.99853515625,-0.01806640625,2.28118896484375,-0.8544921875,0.46539306640625
3.177986623999999,-0.00830078125,0.998046875,-0.018310546875,2.3193359375,-0.83160400390625,0.48065185546875
3.1877285119999996,-0.008056640625,0.998046875,-0.0185546875,2.28118896484375,-0.8544921875,0.49591064453125
3.1974751999999995,-0.008056640625,0.99853515625,-0.018310546875,2.288818359375,-0.86212158203125,0.4730224609375
3.2072437120000004,-0.007568359375,0.998291015625,-0.017822265625,2.288818359375,-0.8544921875,0.48065185546875
3.2180750719999978,-0.008544921875,0.998779296875,-0.017578125,2.288818359375,-0.84686279296875,0.48065185546875
3.227836351999997,-0.008056640625,0.998779296875,-0.01806640625,2.32696533203125,-0.8544921875,0.457763671875
3.237595968000001,-0.008544921875,0.998291015625,-0.01806640625,2.28118896484375,-0.8392333984375,0.48065185546875
3.2473438079999966,-0.008056640625,0.99853515625,-0.017578125,2.28118896484375,-0.8697509765625,0.4730224609375
3.2581607360000007,-0.008544921875,0.998291015625,-0.01806640625,2.288818359375,-0.84686279296875,0.48828125
3.2678860159999985,-0.0078125,0.998291015625,-0.01806640625,2.28118896484375,-0.84686279296875,0.48065185546875
3.2776689920000024,-0.0078125,0.99755859375,-0.018310546875,2.28118896484375,-0.87738037109375,0.4730224609375
3.2874008639999985,-0.00830078125,0.997802734375,-0.01806640625,2.29644775390625,-0.86212158203125,0.4730224609375
3.2971435520000014,-0.007568359375,0.998046875,-0.017333984375,2.3040771484375,-0.84686279296875,0.51116943359375
3.3080427519999986,-0.0078125,0.998046875,-0.017578125,2.31170654296875,-0.8697509765625,0.49591064453125
3.317228512,-0.0078125,0.997802734375,-0.0185546875,2.3193359375,-0.86212158203125,0.46539306640625
3.328050240000003,-0.008544921875,0.997802734375,-0.0185546875,2.2735595703125,-0.8544921875,0.46539306640625
3.3377738240000028,-0.008544921875,0.997802734375,-0.017822265625,2.288818359375,-0.84686279296875,0.48065185546875
3.3475131840000003,-0.00830078125,0.998046875,-0.01806640625,2.29644775390625,-0.8544921875,0.4730224609375
3.3572384320000026,-0.008056640625,0.99853515625,-0.017822265625,2.2735595703125,-0.8544921875,0.4730224609375
3.3680511999999965,-0.007568359375,0.99853515625,-0.017578125,2.26593017578125,-0.87738037109375,0.48065185546875
3.377774080000002,-0.008056640625,0.998046875,-0.018310546875,2.28118896484375,-0.86212158203125,0.5035400390625
3.387500064000001,-0.0087890625,0.998046875,-0.01806640625,2.3040771484375,-0.8392333984375,0.51116943359375
3.397235232,-0.008056640625,0.998046875,-0.017578125,2.3040771484375,-0.8544921875,0.48065185546875
3.408056991999999,-0.00830078125,0.998046875,-0.017822265625,2.29644775390625,-0.8697509765625,0.49591064453125
3.4177841599999965,-0.0078125,0.998046875,-0.017822265625,2.29644775390625,-0.86212158203125,0.49591064453125
3.4275087999999982,-0.008056640625,0.998046875,-0.017822265625,2.2735595703125,-0.86212158203125,0.48828125
3.4372438719999963,-0.00830078125,0.998046875,-0.01806640625,2.28118896484375,-0.84686279296875,0.48065185546875
3.448064608000003,-0.0078125,0.998291015625,-0.017578125,2.3040771484375,-0.8544921875,0.48065185546875
3.4577912000000026,-0.0078125,0.998046875,-0.017578125,2.3040771484375,-0.8544921875,0.49591064453125
3.467516672000002,-0.008544921875,0.997802734375,-0.017822265625,2.3040771484375,-0.8544921875,0.46539306640625
3.4772426239999987,-0.00830078125,0.99853515625,-0.0185546875,2.28118896484375,-0.8544921875,0.49591064453125
3.488056512,-0.008544921875,0.998046875,-0.01806640625,2.288818359375,-0.87738037109375,0.51116943359375
3.497775648000001,-0.00830078125,0.998046875,-0.018310546875,2.3040771484375,-0.86212158203125,0.49591064453125
3.50749536,-0.008544921875,0.998779296875,-0.018310546875,2.29644775390625,-0.8392333984375,0.4730224609375
3.517240000000001,-0.0087890625,0.99853515625,-0.017822265625,2.28118896484375,-0.8697509765625,0.46539306640625
3.528062816000002,-0.00830078125,0.998779296875,-0.017578125,2.28118896484375,-0.86212158203125,0.4730224609375
3.5378390400000015,-0.007568359375,0.99853515625,-0.017333984375,2.288818359375,-0.8544921875,0.457763671875
3.547593919999997,-0.008056640625,0.998291015625,-0.017822265625,2.2735595703125,-0.84686279296875,0.457763671875
3.5573327359999993,-0.008544921875,0.998291015625,-0.018798828125,2.32696533203125,-0.86212158203125,0.48828125
3.5681455679999985,-0.0078125,0.998046875,-0.018310546875,2.288818359375,-0.83160400390625,0.46539306640625
3.577870783999998,-0.008544921875,0.99755859375,-0.01806640625,2.28118896484375,-0.8392333984375,0.4730224609375
3.587598176,-0.008544921875,0.998046875,-0.0185546875,2.288818359375,-0.87738037109375,0.4730224609375
3.5973207039999977,-0.00830078125,0.998046875,-0.01806640625,2.28118896484375,-0.84686279296875,0.49591064453125
3.6081399680000033,-0.00830078125,0.9990234375,-0.0185546875,2.3040771484375,-0.8392333984375,0.4730224609375
3.617865823999999,-0.00830078125,0.997802734375,-0.017333984375,2.288818359375,-0.86212158203125,0.5035400390625
3.6276669760000004,-0.008544921875,0.998046875,-0.017822265625,2.25830078125,-0.84686279296875,0.4730224609375
3.637549663999998,-0.0087890625,0.99755859375,-0.017822265625,2.29644775390625,-0.8392333984375,0.4730224609375
3.6473277759999974,-0.0087890625,0.998046875,-0.01806640625,2.28118896484375,-0.8544921875,0.46539306640625
3.6575493759999986,-0.0078125,0.998291015625,-0.017822265625,2.26593017578125,-0.86212158203125,0.48065185546875
3.6676896319999983,-0.007568359375,0.997802734375,-0.018310546875,2.2735595703125,-0.84686279296875,0.48065185546875
3.6774050880000004,-0.008544921875,0.99853515625,-0.017578125,2.288818359375,-0.86212158203125,0.5035400390625
3.6871645120000025,-0.008544921875,0.99853515625,-0.01806640625,2.288818359375,-0.84686279296875,0.48065185546875
3.6980218879999995,-0.00830078125,0.998291015625,-0.01904296875,2.2735595703125,-0.83160400390625,0.49591064453125
3.7077499520000003,-0.00830078125,0.99853515625,-0.018310546875,2.28118896484375,-0.87738037109375,0.5035400390625
3.717514975999997,-0.008544921875,0.998291015625,-0.0185546875,2.29644775390625,-0.86212158203125,0.49591064453125
3.7276760960000033,-0.008544921875,0.997802734375,-0.018310546875,2.288818359375,-0.87738037109375,0.48828125
3.7374076159999987,-0.00830078125,0.998046875,-0.017822265625,2.28118896484375,-0.86212158203125,0.46539306640625
3.7472681599999973,-0.00830078125,0.998046875,-0.017578125,2.29644775390625,-0.8392333984375,0.4730224609375
3.7580935679999996,-0.008056640625,0.998046875,-0.018310546875,2.288818359375,-0.8544921875,0.4730224609375
3.767841535999999,-0.00830078125,0.99853515625,-0.01806640625,2.28118896484375,-0.8697509765625,0.48065185546875
3.7776233920000024,-0.0087890625,0.99853515625,-0.017822265625,2.25830078125,-0.8697509765625,0.49591064453125
3.787357696000001,-0.007568359375,0.99853515625,-0.018310546875,2.28118896484375,-0.83160400390625,0.48065185546875
3.7971307199999984,-0.0078125,0.99853515625,-0.018310546875,2.288818359375,-0.86212158203125,0.5035400390625
3.807970335999997,-0.0078125,0.998046875,-0.0185546875,2.29644775390625,-0.8392333984375,0.48065185546875
3.817701407999998,-0.008544921875,0.998779296875,-0.01806640625,2.31170654296875,-0.86212158203125,0.48828125
3.827814816,-0.007568359375,0.998779296875,-0.017822265625,2.3040771484375,-0.87738037109375,0.4730224609375
3.837644191999999,-0.007568359375,0.998046875,-0.017578125,2.28118896484375,-0.86212158203125,0.48065185546875
3.8473826880000033,-0.0078125,0.998779296875,-0.01806640625,2.288818359375,-0.8544921875,0.4730224609375
3.857132063999998,-0.0078125,0.99755859375,-0.0185546875,2.28118896484375,-0.8544921875,0.48065185546875
3.8679824960000033,-0.00830078125,0.99755859375,-0.01806640625,2.29644775390625,-0.84686279296875,0.48065185546875
3.8777344000000014,-0.008056640625,0.998046875,-0.017333984375,2.288818359375,-0.8392333984375,0.48065185546875
3.8874814719999975,-0.00830078125,0.998046875,-0.01806640625,2.28118896484375,-0.8392333984375,0.4730224609375
3.897236927999998,-0.008056640625,0.998046875,-0.01806640625,2.29644775390625,-0.8544921875,0.4730224609375
3.908056639999998,-0.00830078125,0.997802734375,-0.01806640625,2.288818359375,-0.86212158203125,0.4730224609375
3.917784447999999,-0.007568359375,0.997802734375,-0.017822265625,2.26593017578125,-0.8697509765625,0.49591064453125
3.9275642879999992,-0.007568359375,0.998046875,-0.018310546875,2.288818359375,-0.86212158203125,0.48065185546875
3.9373078400000026,-0.0078125,0.99853515625,-0.017578125,2.2735595703125,-0.8544921875,0.4730224609375
3.9481357120000027,-0.0078125,0.998779296875,-0.0185546875,2.2735595703125,-0.86212158203125,0.49591064453125
3.957862112000001,-0.0078125,0.998046875,-0.017822265625,2.2735595703125,-0.86212158203125,0.48065185546875
3.9678626239999986,-0.0078125,0.998046875,-0.0185546875,2.26593017578125,-0.86212158203125,0.4730224609375
3.977646464000003,-0.00830078125,0.997802734375,-0.0185546875,2.25067138671875,-0.8544921875,0.48065185546875
3.9873855680000005,-0.008544921875,0.998291015625,-0.017578125,2.2430419921875,-0.8697509765625,0.48828125
3.9971368960000007,-0.008056640625,0.998291015625,-0.017822265625,2.28118896484375,-0.84686279296875,0.51116943359375
4.008085311999999,-0.0078125,0.998291015625,-0.018310546875,2.288818359375,-0.86212158203125,0.48065185546875
4.017847424000003,-0.0078125,0.998046875,-0.017578125,2.25830078125,-0.8544921875,0.49591064453125
4.027612288,-0.0087890625,0.998291015625,-0.017578125,2.288818359375,-0.8697509765625,0.49591064453125
4.037360159999999,-0.00830078125,0.998046875,-0.018310546875,2.3040771484375,-0.87738037109375,0.51116943359375
4.0471317760000005,-0.008544921875,0.997802734375,-0.0185546875,2.2735595703125,-0.83160400390625,0.49591064453125
4.057988960000003,-0.0087890625,0.998291015625,-0.01806640625,2.3040771484375,-0.8697509765625,0.48065185546875
4.067721120000002,-0.00830078125,0.998046875,-0.017822265625,2.3040771484375,-0.84686279296875,0.4730224609375
4.0774756479999965,-0.00830078125,0.997802734375,-0.017822265625,2.3040771484375,-0.8392333984375,0.49591064453125
4.087241472000002,-0.0078125,0.998779296875,-0.018310546875,2.28118896484375,-0.86212158203125,0.48065185546875
4.0980586239999965,-0.0078125,0.998291015625,-0.018310546875,2.29644775390625,-0.8697509765625,0.49591064453125
4.107810336,-0.00830078125,0.998046875,-0.01806640625,2.3040771484375,-0.84686279296875,0.4730224609375
4.1175387520000015,-0.008056640625,0.998291015625,-0.018310546875,2.288818359375,-0.8544921875,0.4730224609375
4.127285311999998,-0.008056640625,0.998046875,-0.01806640625,2.28118896484375,-0.84686279296875,0.4730224609375
4.1371568960000005,-0.008544921875,0.99853515625,-0.01806640625,2.29644775390625,-0.86212158203125,0.48828125
4.148000576000001,-0.00830078125,0.998291015625,-0.01806640625,2.31170654296875,-0.8544921875,0.49591064453125
4.157971871999997,-0.00732421875,0.99853515625,-0.017333984375,2.28118896484375,-0.8544921875,0.4730224609375
4.167777248,-0.00830078125,0.998046875,-0.01708984375,2.2735595703125,-0.8544921875,0.4730224609375
4.177509983999997,-0.00830078125,0.998046875,-0.017822265625,2.2735595703125,-0.8544921875,0.49591064453125
4.187269471999997,-0.0087890625,0.998291015625,-0.018310546875,2.2735595703125,-0.8544921875,0.46539306640625
4.198094752000003,-0.008056640625,0.99853515625,-0.01806640625,2.3040771484375,-0.87738037109375,0.48065185546875
4.207856704000001,-0.008544921875,0.99853515625,-0.017822265625,2.2430419921875,-0.8697509765625,0.46539306640625
4.217630079999999,-0.008544921875,0.998046875,-0.018310546875,2.3040771484375,-0.86212158203125,0.5035400390625
4.227361631999997,-0.00830078125,0.998779296875,-0.017578125,2.3040771484375,-0.8697509765625,0.49591064453125
4.238221791999997,-0.008544921875,0.997802734375,-0.01806640625,2.2735595703125,-0.823974609375,0.46539306640625
4.247986015999999,-0.00830078125,0.998046875,-0.018310546875,2.29644775390625,-0.8544921875,0.4730224609375
4.257721695999997,-0.00830078125,0.998291015625,-0.01806640625,2.288818359375,-0.86212158203125,0.48828125
4.267478848000003,-0.00830078125,0.998291015625,-0.01806640625,2.3193359375,-0.8544921875,0.457763671875
4.277237888000002,-0.008056640625,0.998779296875,-0.018310546875,2.31170654296875,-0.87738037109375,0.48065185546875
4.288061120000002,-0.008056640625,0.998291015625,-0.018310546875,2.28118896484375,-0.86212158203125,0.46539306640625
4.29779808,-0.008544921875,0.998291015625,-0.01806640625,2.29644775390625,-0.87738037109375,0.46539306640625
4.307531648000001,-0.007568359375,0.998046875,-0.01806640625,2.26593017578125,-0.8392333984375,0.46539306640625
4.317280128,-0.008544921875,0.998046875,-0.018798828125,2.2735595703125,-0.8392333984375,0.48065185546875
4.328102655999999,-0.00830078125,0.998291015625,-0.018310546875,2.29644775390625,-0.8544921875,0.48828125
4.337827967999999,-0.00830078125,0.99853515625,-0.018310546875,2.29644775390625,-0.8392333984375,0.48065185546875
4.347581024,-0.00830078125,0.99853515625,-0.017822265625,2.26593017578125,-0.8544921875,0.46539306640625
4.357332864,-0.00830078125,0.9990234375,-0.016845703125,2.28118896484375,-0.84686279296875,0.48828125
4.3681638079999985,-0.00732421875,0.998779296875,-0.018310546875,2.29644775390625,-0.8392333984375,0.4730224609375
4.377900480000001,-0.007568359375,0.998291015625,-0.01806640625,2.25830078125,-0.84686279296875,0.46539306640625
4.387633344000001,-0.008544921875,0.998291015625,-0.018310546875,2.25830078125,-0.8392333984375,0.48828125
4.397369087999998,-0.0078125,0.998291015625,-0.018310546875,2.288818359375,-0.8392333984375,0.5035400390625
4.408217471999997,-0.007568359375,0.998779296875,-0.01708984375,2.28118896484375,-0.8544921875,0.48828125
4.417974911999998,-0.008056640625,0.997802734375,-0.018310546875,2.3193359375,-0.86212158203125,0.48065185546875
4.427764095999997,-0.008056640625,0.998046875,-0.01806640625,2.28118896484375,-0.83160400390625,0.457763671875
4.437495775999999,-0.00830078125,0.9990234375,-0.017822265625,2.31170654296875,-0.84686279296875,0.49591064453125
4.447264095999998,-0.009033203125,0.99853515625,-0.018310546875,2.29644775390625,-0.83160400390625,0.48065185546875
4.458099871999998,-0.0078125,0.998779296875,-0.017822265625,2.28118896484375,-0.8544921875,0.5035400390625
4.467856224000002,-0.008544921875,0.998291015625,-0.018310546875,2.3040771484375,-0.81634521484375,0.5035400390625
4.477638912000003,-0.008544921875,0.998779296875,-0.01806640625,2.28118896484375,-0.86212158203125,0.457763671875
4.487600671999999,-0.008544921875,0.99853515625,-0.017578125,2.29644775390625,-0.84686279296875,0.4730224609375
4.497354559999998,-0.0078125,0.998046875,-0.01806640625,2.3040771484375,-0.87738037109375,0.48065185546875
4.507230751999998,-0.008544921875,0.998291015625,-0.017822265625,2.28118896484375,-0.8697509765625,0.457763671875
4.518072832000001,-0.0078125,0.998291015625,-0.017578125,2.32696533203125,-0.8392333984375,0.51116943359375
4.527857472000001,-0.00830078125,0.99853515625,-0.018310546875,2.32696533203125,-0.84686279296875,0.5035400390625
4.537634208,-0.00830078125,0.998046875,-0.018310546875,2.29644775390625,-0.8544921875,0.48065185546875
4.547371583999997,-0.00830078125,0.99853515625,-0.018310546875,2.3040771484375,-0.83160400390625,0.48065185546875
4.557141823999999,-0.008544921875,0.998779296875,-0.017578125,2.288818359375,-0.8544921875,0.46539306640625
4.567997216000002,-0.0078125,0.998046875,-0.017822265625,2.3040771484375,-0.885009765625,0.48065185546875
4.5777305279999965,-0.008056640625,0.997802734375,-0.018310546875,2.288818359375,-0.885009765625,0.48065185546875
4.587486144000003,-0.008544921875,0.998291015625,-0.01806640625,2.26593017578125,-0.8392333984375,0.4425048828125
4.597244287999999,-0.008056640625,0.998046875,-0.01806640625,2.288818359375,-0.86212158203125,0.48065185546875
4.608067040000002,-0.0078125,0.998046875,-0.01806640625,2.28118896484375,-0.87738037109375,0.48065185546875
4.617799456,-0.008056640625,0.99755859375,-0.017822265625,2.288818359375,-0.86212158203125,0.49591064453125
4.6275303359999995,-0.008056640625,0.998291015625,-0.017822265625,2.3193359375,-0.8544921875,0.48065185546875
4.637255136,-0.00830078125,0.9990234375,-0.018310546875,2.32696533203125,-0.86212158203125,0.48065185546875
4.648070976,-0.00830078125,0.99853515625,-0.017822265625,2.3040771484375,-0.86212158203125,0.51116943359375
4.657815904000003,-0.008544921875,0.997802734375,-0.017333984375,2.28118896484375,-0.86212158203125,0.49591064453125
4.667552800000003,-0.008544921875,0.997314453125,-0.01806640625,2.288818359375,-0.86212158203125,0.46539306640625
4.67727936,-0.008056640625,0.998291015625,-0.01806640625,2.3040771484375,-0.83160400390625,0.457763671875
4.688096639999998,-0.008056640625,0.99853515625,-0.017822265625,2.3193359375,-0.84686279296875,0.4730224609375
4.697857024000001,-0.00830078125,0.99853515625,-0.01806640625,2.288818359375,-0.8697509765625,0.48065185546875
4.707636544000003,-0.00830078125,0.998291015625,-0.017578125,2.288818359375,-0.8697509765625,0.48065185546875
4.717363071999998,-0.007568359375,0.998291015625,-0.017578125,2.3040771484375,-0.8544921875,0.457763671875
4.728227263999997,-0.0078125,0.998779296875,-0.017822265625,2.29644775390625,-0.8697509765625,0.4730224609375
4.737988416,-0.00830078125,0.99853515625,-0.017578125,2.3040771484375,-0.86212158203125,0.48065185546875
4.747718464000002,-0.00830078125,0.997802734375,-0.017822265625,2.29644775390625,-0.8544921875,0.45013427734375
4.7574881279999985,-0.008056640625,0.99853515625,-0.017822265625,2.2735595703125,-0.8544921875,0.48065185546875
4.767252448000001,-0.00830078125,0.99853515625,-0.018310546875,2.2735595703125,-0.8392333984375,0.45013427734375
4.778075008000002,-0.0078125,0.997802734375,-0.01806640625,2.28118896484375,-0.8544921875,0.46539306640625
4.787855071999999,-0.00830078125,0.99853515625,-0.01806640625,2.26593017578125,-0.86212158203125,0.48065185546875
4.797634080000002,-0.007568359375,0.997314453125,-0.018310546875,2.3040771484375,-0.86212158203125,0.4730224609375
4.807368224000001,-0.008056640625,0.997314453125,-0.018310546875,2.2735595703125,-0.8697509765625,0.48828125
4.8181898559999965,-0.00830078125,0.998779296875,-0.0185546875,2.28118896484375,-0.86212158203125,0.4730224609375
4.82793504,-0.00830078125,0.99853515625,-0.018310546875,2.288818359375,-0.86212158203125,0.48828125
4.837673152000001,-0.00830078125,0.99853515625,-0.017822265625,2.3193359375,-0.87738037109375,0.4730224609375
4.847404224000002,-0.00830078125,0.998046875,-0.01806640625,2.3040771484375,-0.8544921875,0.48065185546875
4.857149792000001,-0.00830078125,0.997802734375,-0.0185546875,2.288818359375,-0.84686279296875,0.48065185546875
4.868007040000002,-0.0078125,0.998046875,-0.0185546875,2.2735595703125,-0.8392333984375,0.4730224609375
4.8777467199999975,-0.00830078125,0.998046875,-0.01806640625,2.3040771484375,-0.84686279296875,0.48065185546875
4.887489791999997,-0.008544921875,0.99853515625,-0.018310546875,2.29644775390625,-0.86212158203125,0.48065185546875
4.897252031999997,-0.008544921875,0.998046875,-0.018310546875,2.29644775390625,-0.8697509765625,0.49591064453125
4.908069503999997,-0.0078125,0.997802734375,-0.0185546875,2.31170654296875,-0.8544921875,0.48065185546875
4.917797759999999,-0.008544921875,0.99853515625,-0.01806640625,2.2735595703125,-0.84686279296875,0.4730224609375
4.927529728000003,-0.008056640625,0.99853515625,-0.01708984375,2.288818359375,-0.86212158203125,0.45013427734375
4.93728832,-0.008056640625,0.99853515625,-0.017578125,2.31170654296875,-0.8392333984375,0.49591064453125
4.948106975999998,-0.0078125,0.99853515625,-0.017578125,2.29644775390625,-0.8544921875,0.46539306640625
4.95785008,-0.007568359375,0.998291015625,-0.01806640625,2.28118896484375,-0.8392333984375,0.457763671875
4.967596448000002,-0.008056640625,0.99853515625,-0.018310546875,2.3040771484375,-0.86212158203125,0.49591064453125
4.977338975999999,-0.008544921875,0.998046875,-0.017333984375,2.288818359375,-0.86212158203125,0.4730224609375
4.988164896000001,-0.008544921875,0.998779296875,-0.01806640625,2.28118896484375,-0.8544921875,0.48065185546875
4.997896480000001,-0.008056640625,0.999267578125,-0.017822265625,2.2735595703125,-0.8544921875,0.48828125
5.007626463999998,-0.007568359375,0.99853515625,-0.01806640625,2.29644775390625,-0.86212158203125,0.48065185546875
5.017359040000002,-0.008056640625,0.99755859375,-0.017333984375,2.288818359375,-0.8697509765625,0.49591064453125
5.02823008,-0.0087890625,0.997802734375,-0.017578125,2.29644775390625,-0.8392333984375,0.48828125
5.0379834239999965,-0.007568359375,0.997802734375,-0.01806640625,2.28118896484375,-0.87738037109375,0.46539306640625
5.04771616,-0.008056640625,0.997802734375,-0.01806640625,2.29644775390625,-0.86212158203125,0.4730224609375
5.057443552000002,-0.008544921875,0.99853515625,-0.017578125,2.288818359375,-0.83160400390625,0.4730224609375
5.067216735999999,-0.008056640625,0.997802734375,-0.018310546875,2.2735595703125,-0.8697509765625,0.4730224609375
5.078060704000002,-0.007568359375,0.99853515625,-0.017822265625,2.2735595703125,-0.84686279296875,0.45013427734375
5.087860800000001,-0.007568359375,0.998779296875,-0.01806640625,2.28118896484375,-0.8697509765625,0.4730224609375
5.097637696,-0.0078125,0.997802734375,-0.01806640625,2.25067138671875,-0.8697509765625,0.4730224609375
5.107369247999998,-0.0078125,0.99755859375,-0.017333984375,2.2735595703125,-0.8697509765625,0.45013427734375
5.118226688,-0.00830078125,0.998291015625,-0.017578125,2.3040771484375,-0.8697509765625,0.48065185546875
5.127984959999999,-0.008544921875,0.998046875,-0.017822265625,2.28118896484375,-0.86212158203125,0.48065185546875
5.137709504,-0.008544921875,0.997802734375,-0.017822265625,2.26593017578125,-0.8544921875,0.48065185546875
5.147436927999998,-0.008544921875,0.99853515625,-0.018310546875,2.288818359375,-0.83160400390625,0.48828125
5.157180480000001,-0.0078125,0.998046875,-0.017578125,2.288818359375,-0.86212158203125,0.46539306640625
5.1680049599999975,-0.008056640625,0.998046875,-0.01806640625,2.25830078125,-0.84686279296875,0.46539306640625
5.177727584000003,-0.008056640625,0.998291015625,-0.017333984375,2.26593017578125,-0.84686279296875,0.46539306640625
5.187489919999997,-0.00830078125,0.997802734375,-0.017822265625,2.288818359375,-0.8392333984375,0.4730224609375
5.197267103999998,-0.00830078125,0.998046875,-0.018310546875,2.31170654296875,-0.8544921875,0.4730224609375
5.208099488000002,-0.00830078125,0.997802734375,-0.017578125,2.288818359375,-0.86212158203125,0.48828125
5.217863743999999,-0.00830078125,0.998291015625,-0.018310546875,2.288818359375,-0.84686279296875,0.48065185546875
5.2276208319999995,-0.0078125,0.998046875,-0.01806640625,2.288818359375,-0.86212158203125,0.48065185546875
5.237352864000002,-0.00830078125,0.99853515625,-0.01806640625,2.25830078125,-0.8392333984375,0.4730224609375
5.248173887999997,-0.0078125,0.998046875,-0.01806640625,2.2735595703125,-0.8544921875,0.49591064453125
5.257899295999998,-0.007568359375,0.998046875,-0.01806640625,2.3040771484375,-0.86212158203125,0.4730224609375
5.267642432000002,-0.00830078125,0.99853515625,-0.017578125,2.28118896484375,-0.8544921875,0.48828125
5.277373599999997,-0.008056640625,0.998291015625,-0.018310546875,2.31170654296875,-0.86212158203125,0.48828125
5.288240768000001,-0.009033203125,0.998046875,-0.018310546875,2.2735595703125,-0.84686279296875,0.49591064453125
5.298000608000002,-0.009033203125,0.998046875,-0.017822265625,2.3040771484375,-0.87738037109375,0.48828125
5.307731871999998,-0.009033203125,0.99853515625,-0.01806640625,2.288818359375,-0.86212158203125,0.4730224609375
5.317886303999998,-0.008544921875,0.998291015625,-0.017822265625,2.29644775390625,-0.83160400390625,0.4730224609375
5.32767904,-0.008056640625,0.998046875,-0.017333984375,2.29644775390625,-0.83160400390625,0.457763671875
5.337413216000002,-0.00830078125,0.99853515625,-0.017822265625,2.25067138671875,-0.84686279296875,0.4730224609375
5.347178624000001,-0.008544921875,0.998291015625,-0.017578125,2.28118896484375,-0.84686279296875,0.46539306640625
5.358001504000001,-0.008056640625,0.998291015625,-0.017578125,2.288818359375,-0.86212158203125,0.4730224609375
5.3677432,-0.008056640625,0.998291015625,-0.017578125,2.29644775390625,-0.87738037109375,0.48828125
5.377496639999997,-0.008056640625,0.99853515625,-0.017822265625,2.28118896484375,-0.86212158203125,0.46539306640625
5.387257920000003,-0.008056640625,0.99755859375,-0.01806640625,2.3040771484375,-0.885009765625,0.48065185546875
5.398078464000001,-0.00830078125,0.99853515625,-0.018310546875,2.3193359375,-0.86212158203125,0.48065185546875
5.407864863999997,-0.008544921875,0.998779296875,-0.01806640625,2.288818359375,-0.86212158203125,0.48065185546875
5.417638687999997,-0.00830078125,0.998291015625,-0.017822265625,2.288818359375,-0.8697509765625,0.48065185546875
5.427365311999999,-0.00830078125,0.998291015625,-0.018310546875,2.3040771484375,-0.8544921875,0.457763671875
5.438186655999999,-0.008544921875,0.998046875,-0.018310546875,2.288818359375,-0.8544921875,0.4730224609375
5.447913823999997,-0.0087890625,0.998291015625,-0.01806640625,2.26593017578125,-0.8392333984375,0.457763671875
5.457639424,-0.00830078125,0.998779296875,-0.018310546875,2.26593017578125,-0.86212158203125,0.4730224609375
5.467370367999997,-0.008544921875,0.998291015625,-0.01806640625,2.29644775390625,-0.8544921875,0.51116943359375
5.478235935999997,-0.0087890625,0.998046875,-0.017822265625,2.29644775390625,-0.8544921875,0.48828125
5.487993088000003,-0.0078125,0.997802734375,-0.017822265625,2.3040771484375,-0.86212158203125,0.48065185546875
5.497717536000003,-0.008544921875,0.998291015625,-0.017822265625,2.29644775390625,-0.83160400390625,0.46539306640625
5.507505088000002,-0.008056640625,0.998291015625,-0.0185546875,2.2735595703125,-0.8392333984375,0.4730224609375
5.517261824000002,-0.0087890625,0.998046875,-0.018310546875,2.2735595703125,-0.8697509765625,0.45013427734375
5.528091744000001,-0.008544921875,0.997802734375,-0.017578125,2.2735595703125,-0.8544921875,0.49591064453125
5.537813888000002,-0.007568359375,0.99853515625,-0.017822265625,2.288818359375,-0.86212158203125,0.46539306640625
5.547547328,-0.00830078125,0.998046875,-0.017333984375,2.26593017578125,-0.86212158203125,0.48828125
5.557289535999999,-0.00830078125,0.997802734375,-0.017333984375,2.25830078125,-0.86212158203125,0.48828125
5.568099424000003,-0.008056640625,0.998779296875,-0.01806640625,2.28118896484375,-0.8544921875,0.48065185546875
5.5778216,-0.00830078125,0.9990234375,-0.017578125,2.288818359375,-0.8392333984375,0.46539306640625
5.587552864000003,-0.008544921875,0.998046875,-0.017822265625,2.28118896484375,-0.83160400390625,0.5035400390625
5.597285088,-0.008544921875,0.998046875,-0.018310546875,2.3040771484375,-0.83160400390625,0.45013427734375
5.608119872000003,-0.008544921875,0.998046875,-0.01806640625,2.28118896484375,-0.8544921875,0.46539306640625
5.617869343999999,-0.0087890625,0.998779296875,-0.017822265625,2.28118896484375,-0.8544921875,0.48065185546875
5.62763168,-0.008056640625,0.99853515625,-0.017822265625,2.288818359375,-0.86212158203125,0.48828125
5.63735776,-0.00830078125,0.998291015625,-0.017578125,2.3193359375,-0.885009765625,0.48065185546875
5.6481770560000015,-0.008056640625,0.99853515625,-0.017822265625,2.288818359375,-0.8544921875,0.48065185546875
5.657905055999997,-0.008056640625,0.997802734375,-0.01708984375,2.2735595703125,-0.83160400390625,0.48065185546875
5.667644736,-0.008056640625,0.997802734375,-0.017822265625,2.288818359375,-0.86212158203125,0.45013427734375
5.6773741120000025,-0.008544921875,0.998046875,-0.01806640625,2.28118896484375,-0.8392333984375,0.46539306640625
5.688194975999998,-0.00830078125,0.99755859375,-0.01806640625,2.28118896484375,-0.84686279296875,0.46539306640625
5.697930751999998,-0.00830078125,0.99853515625,-0.0185546875,2.288818359375,-0.86212158203125,0.5035400390625
5.707654976000001,-0.008056640625,0.99853515625,-0.018798828125,2.28118896484375,-0.86212158203125,0.49591064453125
5.717380543000004,-0.00830078125,0.998779296875,-0.017822265625,2.288818359375,-0.8392333984375,0.4730224609375
5.727439071000006,-0.008544921875,0.998046875,-0.018310546875,2.3040771484375,-0.8392333984375,0.49591064453125
5.737215935999998,-0.00830078125,0.99853515625,-0.01806640625,2.3040771484375,-0.8392333984375,0.48065185546875
5.74803584,-0.008056640625,0.99853515625,-0.017578125,2.3193359375,-0.86212158203125,0.518798828125
5.757761407000004,-0.00830078125,0.998291015625,-0.01806640625,2.2735595703125,-0.84686279296875,0.51116943359375
5.7674997750000045,-0.008056640625,0.99853515625,-0.017822265625,2.29644775390625,-0.8544921875,0.4730224609375
5.777253599000005,-0.0078125,0.99853515625,-0.017822265625,2.29644775390625,-0.86212158203125,0.48065185546875
5.788066176000001,-0.00830078125,0.998291015625,-0.017822265625,2.2735595703125,-0.8544921875,0.49591064453125
5.797789727999998,-0.008056640625,0.998291015625,-0.017333984375,2.28118896484375,-0.8392333984375,0.51116943359375
5.807498655000003,-0.00830078125,0.998046875,-0.018310546875,2.31170654296875,-0.83160400390625,0.49591064453125
5.8172488000000016,-0.008544921875,0.998291015625,-0.01806640625,2.29644775390625,-0.8544921875,0.48065185546875
5.828060416,-0.007568359375,0.99853515625,-0.017822265625,2.3040771484375,-0.8544921875,0.457763671875
5.837778975000006,-0.00830078125,0.997802734375,-0.017822265625,2.29644775390625,-0.8544921875,0.48828125
5.847504639999997,-0.008056640625,0.998291015625,-0.017578125,2.3040771484375,-0.8392333984375,0.48065185546875
5.857269152000001,-0.00732421875,0.997802734375,-0.017578125,2.288818359375,-0.86212158203125,0.48828125
5.868076672000001,-0.00830078125,0.998291015625,-0.01806640625,2.288818359375,-0.8392333984375,0.4730224609375
5.877792864,-0.008056640625,0.998291015625,-0.017822265625,2.3040771484375,-0.8544921875,0.51116943359375
5.887506720000005,-0.00830078125,0.999267578125,-0.018310546875,2.28118896484375,-0.86212158203125,0.48065185546875
5.897261024000002,-0.00830078125,0.9990234375,-0.018310546875,2.2735595703125,-0.8392333984375,0.48065185546875
5.908073728000005,-0.007568359375,0.998046875,-0.01806640625,2.2735595703125,-0.83160400390625,0.49591064453125
5.917803296000002,-0.008544921875,0.998291015625,-0.018310546875,2.26593017578125,-0.87738037109375,0.5035400390625
5.927521920000004,-0.0087890625,0.998046875,-0.01806640625,2.2735595703125,-0.86212158203125,0.48828125
5.937254879999998,-0.00830078125,0.998046875,-0.018798828125,2.288818359375,-0.83160400390625,0.46539306640625
5.948060127000005,-0.008056640625,0.998046875,-0.01806640625,2.31170654296875,-0.83160400390625,0.48828125
5.9577734719999995,-0.00830078125,0.998046875,-0.01806640625,2.28118896484375,-0.8392333984375,0.48828125
5.967511872000003,-0.00830078125,0.997802734375,-0.018310546875,2.3040771484375,-0.8544921875,0.48065185546875
5.977252543000006,-0.00830078125,0.998046875,-0.017822265625,2.3193359375,-0.83160400390625,0.48065185546875
5.988069920000001,-0.008056640625,0.99853515625,-0.018798828125,2.3193359375,-0.9002685546875,0.5035400390625
5.997796768000001,-0.008056640625,0.99853515625,-0.01806640625,2.288818359375,-0.86212158203125,0.457763671875
6.007531455000006,-0.00830078125,0.997802734375,-0.017822265625,2.28118896484375,-0.8392333984375,0.457763671875
6.017254015000006,-0.008056640625,0.99755859375,-0.017822265625,2.28118896484375,-0.8544921875,0.46539306640625
6.0280611520000065,-0.0078125,0.99755859375,-0.017822265625,2.2735595703125,-0.8697509765625,0.5035400390625
6.0377794230000035,-0.0087890625,0.998046875,-0.017822265625,2.3040771484375,-0.86212158203125,0.5035400390625
6.047504607999997,-0.008544921875,0.997802734375,-0.017333984375,2.28118896484375,-0.83160400390625,0.46539306640625
6.057256351999996,-0.009033203125,0.99853515625,-0.017578125,2.2430419921875,-0.83160400390625,0.4730224609375
6.068061760000006,-0.008544921875,0.998779296875,-0.017578125,2.29644775390625,-0.8544921875,0.48065185546875
6.077777183999999,-0.0087890625,0.998291015625,-0.01708984375,2.3040771484375,-0.8392333984375,0.48065185546875
6.087509376,-0.0078125,0.99853515625,-0.01806640625,2.25830078125,-0.83160400390625,0.46539306640625
6.097255200000006,-0.00732421875,0.997802734375,-0.017822265625,2.288818359375,-0.8392333984375,0.49591064453125
6.108059104000006,-0.008056640625,0.998291015625,-0.017578125,2.2735595703125,-0.8544921875,0.48828125
6.1178827840000025,-0.008056640625,0.9990234375,-0.017578125,2.25067138671875,-0.8544921875,0.48065185546875
6.127633919000004,-0.0087890625,0.998046875,-0.01806640625,2.2735595703125,-0.86212158203125,0.4730224609375
6.137746624000002,-0.0087890625,0.99853515625,-0.018310546875,2.29644775390625,-0.8392333984375,0.48065185546875
6.147543872,-0.0087890625,0.998779296875,-0.01806640625,2.2735595703125,-0.8392333984375,0.48828125
6.157328160000006,-0.0087890625,0.998779296875,-0.01806640625,2.3040771484375,-0.8544921875,0.49591064453125
6.168175968,-0.00830078125,0.998291015625,-0.017822265625,2.3040771484375,-0.8697509765625,0.46539306640625
6.177918304000002,-0.00830078125,0.998046875,-0.01806640625,2.29644775390625,-0.8544921875,0.457763671875
6.187661535000004,-0.008056640625,0.99853515625,-0.01806640625,2.288818359375,-0.86212158203125,0.48828125
6.197396831000006,-0.00830078125,0.998291015625,-0.01904296875,2.25830078125,-0.8544921875,0.4730224609375
6.207168960000004,-0.00830078125,0.997802734375,-0.01806640625,2.28118896484375,-0.8544921875,0.4730224609375
6.2180197760000055,-0.0078125,0.998046875,-0.017333984375,2.288818359375,-0.8697509765625,0.5035400390625
6.227792448000002,-0.008544921875,0.99853515625,-0.018310546875,2.28118896484375,-0.8392333984375,0.4730224609375
6.2375334390000035,-0.008056640625,0.9990234375,-0.017822265625,2.288818359375,-0.8544921875,0.48065185546875
6.2472967030000035,-0.008056640625,0.999267578125,-0.017822265625,2.28118896484375,-0.8544921875,0.48065185546875
6.258133504,-0.008544921875,0.997802734375,-0.01806640625,2.288818359375,-0.8392333984375,0.4730224609375
6.267880992000002,-0.00830078125,0.998291015625,-0.017578125,2.26593017578125,-0.8544921875,0.48828125
6.277651680000005,-0.008544921875,0.998291015625,-0.017578125,2.31170654296875,-0.8697509765625,0.48065185546875
6.287387296000006,-0.008544921875,0.99853515625,-0.01806640625,2.29644775390625,-0.86212158203125,0.51116943359375
6.298243263000003,-0.008056640625,0.998046875,-0.01806640625,2.2735595703125,-0.8544921875,0.4730224609375
6.308015327999996,-0.00830078125,0.998291015625,-0.01806640625,2.25830078125,-0.86212158203125,0.46539306640625
6.317747711999999,-0.008056640625,0.99853515625,-0.018798828125,2.29644775390625,-0.86212158203125,0.4730224609375
6.327512479000006,-0.00830078125,0.9990234375,-0.018310546875,2.2735595703125,-0.8392333984375,0.51116943359375
6.337273535999998,-0.008056640625,0.99853515625,-0.018310546875,2.26593017578125,-0.823974609375,0.49591064453125
6.348109600000001,-0.00830078125,0.99853515625,-0.01806640625,2.3040771484375,-0.8544921875,0.457763671875
6.357877696000003,-0.00830078125,0.99853515625,-0.017578125,2.3193359375,-0.86212158203125,0.457763671875
6.3676410559999965,-0.0078125,0.998046875,-0.017578125,2.28118896484375,-0.8697509765625,0.48065185546875
6.377385984,-0.00830078125,0.998046875,-0.01806640625,2.28118896484375,-0.8544921875,0.48065185546875
6.388252480000006,-0.00830078125,0.998046875,-0.01708984375,2.288818359375,-0.84686279296875,0.48828125
6.398012992000005,-0.008056640625,0.998291015625,-0.017578125,2.288818359375,-0.8697509765625,0.48828125
6.4077470720000065,-0.00830078125,0.99853515625,-0.01806640625,2.28118896484375,-0.8697509765625,0.5035400390625
6.417511136000002,-0.0078125,0.99853515625,-0.018798828125,2.3040771484375,-0.8697509765625,0.48065185546875
6.427273408000005,-0.0078125,0.998046875,-0.01806640625,2.3040771484375,-0.885009765625,0.48065185546875
6.438095967999999,-0.008056640625,0.998046875,-0.01806640625,2.29644775390625,-0.84686279296875,0.4730224609375
6.447824576000002,-0.009521484375,0.998291015625,-0.01806640625,2.288818359375,-0.86212158203125,0.46539306640625
6.457552288000002,-0.00830078125,0.997802734375,-0.017578125,2.288818359375,-0.8392333984375,0.43487548828125
6.467281248000006,-0.0078125,0.99755859375,-0.01708984375,2.288818359375,-0.84686279296875,0.46539306640625
6.4781037430000055,-0.00830078125,0.998046875,-0.017578125,2.28118896484375,-0.86212158203125,0.48065185546875
6.487830560000006,-0.007568359375,0.998046875,-0.018310546875,2.288818359375,-0.823974609375,0.49591064453125
6.497561247999997,-0.00830078125,0.998046875,-0.018310546875,2.32696533203125,-0.8392333984375,0.48828125
6.507323360000001,-0.0078125,0.99755859375,-0.017822265625,2.3040771484375,-0.8544921875,0.48828125
6.518197471999997,-0.008056640625,0.998291015625,-0.017578125,2.29644775390625,-0.87738037109375,0.46539306640625
6.527929920000005,-0.0078125,0.998779296875,-0.01806640625,2.28118896484375,-0.8697509765625,0.48065185546875
6.537672639999997,-0.008544921875,0.998779296875,-0.01806640625,2.29644775390625,-0.8544921875,0.4730224609375
6.547421279000005,-0.008544921875,0.99853515625,-0.017333984375,2.288818359375,-0.8544921875,0.48828125
6.557181056000005,-0.0078125,0.998046875,-0.017822265625,2.3040771484375,-0.8697509765625,0.48065185546875
6.568016768000007,-0.00830078125,0.998046875,-0.017333984375,2.2735595703125,-0.86212158203125,0.48065185546875
6.577751488000004,-0.00830078125,0.99755859375,-0.017822265625,2.288818359375,-0.87738037109375,0.46539306640625
6.587510080000001,-0.008056640625,0.998046875,-0.01806640625,2.2735595703125,-0.8392333984375,0.4730224609375
6.597272767999996,-0.00830078125,0.998046875,-0.017578125,2.288818359375,-0.8544921875,0.48065185546875
6.608098592000005,-0.00830078125,0.99853515625,-0.017578125,2.288818359375,-0.8392333984375,0.48065185546875
6.617832575999998,-0.008544921875,0.998291015625,-0.017822265625,2.2735595703125,-0.8697509765625,0.49591064453125
6.627562944000005,-0.00830078125,0.99755859375,-0.017333984375,2.2735595703125,-0.8544921875,0.457763671875
6.637361663999997,-0.008544921875,0.99853515625,-0.017822265625,2.26593017578125,-0.8544921875,0.43487548828125
6.648187680000007,-0.007568359375,0.998291015625,-0.017822265625,2.28118896484375,-0.86212158203125,0.4730224609375
6.657912448000005,-0.008056640625,0.998046875,-0.01806640625,2.3040771484375,-0.8697509765625,0.4730224609375
6.667652927000006,-0.008056640625,0.997802734375,-0.018310546875,2.3193359375,-0.8697509765625,0.46539306640625
6.677385119999997,-0.008056640625,0.99755859375,-0.01806640625,2.288818359375,-0.8392333984375,0.48828125
6.688205088000004,-0.00830078125,0.998291015625,-0.01806640625,2.29644775390625,-0.8392333984375,0.48065185546875
6.697933280000001,-0.008544921875,0.998046875,-0.01806640625,2.32696533203125,-0.87738037109375,0.4730224609375
6.707663007999997,-0.0078125,0.998046875,-0.018310546875,2.25830078125,-0.8544921875,0.48828125
6.717396735999998,-0.008056640625,0.99853515625,-0.017822265625,2.31170654296875,-0.8392333984375,0.48065185546875
6.727190496000006,-0.00830078125,0.997802734375,-0.01806640625,2.29644775390625,-0.8544921875,0.48828125
6.738016639999998,-0.00830078125,0.998046875,-0.018310546875,2.2735595703125,-0.8392333984375,0.457763671875
6.747747136000001,-0.008544921875,0.998046875,-0.018310546875,2.3040771484375,-0.86212158203125,0.48828125
6.757477887999997,-0.0087890625,0.99853515625,-0.0185546875,2.3040771484375,-0.87738037109375,0.46539306640625
6.7672436790000035,-0.00830078125,0.99853515625,-0.01806640625,2.3193359375,-0.86212158203125,0.49591064453125
6.778066015999997,-0.00830078125,0.998291015625,-0.01806640625,2.29644775390625,-0.84686279296875,0.457763671875
6.787820543999999,-0.00830078125,0.9990234375,-0.017578125,2.2735595703125,-0.87738037109375,0.46539306640625
6.797553984000004,-0.008544921875,0.998046875,-0.01806640625,2.2735595703125,-0.8392333984375,0.4730224609375
6.807287168000002,-0.00830078125,0.99853515625,-0.017822265625,2.3193359375,-0.83160400390625,0.48065185546875
6.818123263000004,-0.00830078125,0.998779296875,-0.01806640625,2.2735595703125,-0.8544921875,0.49591064453125
6.827947679000005,-0.00830078125,0.998046875,-0.017578125,2.29644775390625,-0.8544921875,0.46539306640625
6.8376925440000065,-0.0087890625,0.99853515625,-0.01806640625,2.25067138671875,-0.86212158203125,0.4730224609375
6.847428256000001,-0.0087890625,0.998046875,-0.018798828125,2.28118896484375,-0.8392333984375,0.48828125
6.857183071999998,-0.00830078125,0.998291015625,-0.018310546875,2.3040771484375,-0.86212158203125,0.4730224609375
6.868017023999997,-0.00830078125,0.99853515625,-0.017333984375,2.288818359375,-0.83160400390625,0.48828125
6.877746720000005,-0.008544921875,0.99853515625,-0.017578125,2.2735595703125,-0.8544921875,0.46539306640625
6.887512479999998,-0.008544921875,0.99853515625,-0.017822265625,2.28118896484375,-0.84686279296875,0.457763671875
6.897271360000005,-0.00830078125,0.99755859375,-0.017822265625,2.2735595703125,-0.86212158203125,0.4730224609375
6.908090336000001,-0.00830078125,0.998046875,-0.017333984375,2.29644775390625,-0.8544921875,0.51116943359375
6.917821247000006,-0.0078125,0.9990234375,-0.01806640625,2.28118896484375,-0.8544921875,0.4730224609375
6.9275506240000055,-0.00830078125,0.99853515625,-0.0185546875,2.31170654296875,-0.86212158203125,0.49591064453125
6.937339648000005,-0.008056640625,0.99853515625,-0.01806640625,2.3040771484375,-0.8392333984375,0.49591064453125
6.948258944000003,-0.008056640625,0.998291015625,-0.018310546875,2.29644775390625,-0.83160400390625,0.4730224609375
6.9580267200000065,-0.0078125,0.997802734375,-0.018310546875,2.28118896484375,-0.8697509765625,0.46539306640625
6.967766240000003,-0.0087890625,0.997802734375,-0.016845703125,2.28118896484375,-0.8392333984375,0.4730224609375
6.977521120000006,-0.008056640625,0.99853515625,-0.017578125,2.29644775390625,-0.8544921875,0.48065185546875
6.987286400000002,-0.008056640625,0.99853515625,-0.01806640625,2.3040771484375,-0.8544921875,0.46539306640625
6.998126847999998,-0.008544921875,0.998046875,-0.01806640625,2.288818359375,-0.8544921875,0.49591064453125
7.007885376000004,-0.00830078125,0.99853515625,-0.017578125,2.29644775390625,-0.8697509765625,0.48065185546875
7.017674495999998,-0.008056640625,0.998046875,-0.017578125,2.288818359375,-0.86212158203125,0.4730224609375
7.027411360000002,-0.0078125,0.998046875,-0.017578125,2.29644775390625,-0.84686279296875,0.46539306640625
7.0371612800000065,-0.008056640625,0.998046875,-0.01806640625,2.288818359375,-0.86212158203125,0.4730224609375
7.048019199999999,-0.00830078125,0.998291015625,-0.017822265625,2.29644775390625,-0.8544921875,0.4730224609375
7.057773983000004,-0.008056640625,0.998779296875,-0.01806640625,2.29644775390625,-0.84686279296875,0.46539306640625
7.067515263000004,-0.007568359375,0.99853515625,-0.01806640625,2.288818359375,-0.8544921875,0.5035400390625
7.077286943000004,-0.008544921875,0.998291015625,-0.0185546875,2.288818359375,-0.8697509765625,0.518798828125
7.088115392000006,-0.0078125,0.998046875,-0.018310546875,2.25830078125,-0.885009765625,0.48065185546875
7.097883487000004,-0.0078125,0.997802734375,-0.018310546875,2.288818359375,-0.86212158203125,0.49591064453125
7.107665280000006,-0.008056640625,0.998046875,-0.017578125,2.26593017578125,-0.83160400390625,0.457763671875
7.117417376000006,-0.00830078125,0.998779296875,-0.017578125,2.28118896484375,-0.84686279296875,0.46539306640625
7.127187840000005,-0.0078125,0.99853515625,-0.01806640625,2.28118896484375,-0.86212158203125,0.46539306640625
7.1380350710000045,-0.008544921875,0.998779296875,-0.017578125,2.288818359375,-0.8392333984375,0.48065185546875
7.147771359000004,-0.00830078125,0.997802734375,-0.017822265625,2.3040771484375,-0.8544921875,0.46539306640625
7.157518303000003,-0.008544921875,0.998291015625,-0.01806640625,2.28118896484375,-0.86212158203125,0.48828125
7.167298591000005,-0.0078125,0.998291015625,-0.01708984375,2.28118896484375,-0.86212158203125,0.46539306640625
7.178135264000005,-0.00830078125,0.998779296875,-0.018310546875,2.3040771484375,-0.83160400390625,0.4730224609375
7.187883679999999,-0.0087890625,0.998046875,-0.01904296875,2.3040771484375,-0.8544921875,0.48065185546875
7.197651136000005,-0.008544921875,0.998046875,-0.01806640625,2.29644775390625,-0.84686279296875,0.49591064453125
7.207391328,-0.0087890625,0.99853515625,-0.01708984375,2.28118896484375,-0.83160400390625,0.48065185546875
7.218258112000001,-0.008544921875,0.998779296875,-0.017333984375,2.29644775390625,-0.8544921875,0.48828125
7.2280206719999995,-0.00830078125,0.998291015625,-0.017822265625,2.29644775390625,-0.8697509765625,0.49591064453125
7.237753920000003,-0.0078125,0.998046875,-0.017822265625,2.23541259765625,-0.86212158203125,0.46539306640625
7.247523872000002,-0.008544921875,0.998046875,-0.01708984375,2.3040771484375,-0.8697509765625,0.49591064453125
7.257289983999996,-0.0087890625,0.998046875,-0.017578125,2.32696533203125,-0.86212158203125,0.48828125
7.268148031999999,-0.008544921875,0.998291015625,-0.01806640625,2.3040771484375,-0.8544921875,0.48828125
7.2778943990000045,-0.00830078125,0.998779296875,-0.017822265625,2.3040771484375,-0.86212158203125,0.49591064453125
7.2876511679999965,-0.008544921875,0.998779296875,-0.01806640625,2.3040771484375,-0.823974609375,0.457763671875
7.297382880000001,-0.0078125,0.99853515625,-0.017578125,2.28118896484375,-0.8392333984375,0.5035400390625
7.308209184000006,-0.0078125,0.998046875,-0.01806640625,2.3193359375,-0.86212158203125,0.48065185546875
7.317949983000005,-0.00830078125,0.998291015625,-0.01806640625,2.29644775390625,-0.8544921875,0.45013427734375
7.3278995200000026,-0.008056640625,0.998291015625,-0.018310546875,2.2735595703125,-0.8392333984375,0.46539306640625
7.337662944000002,-0.008544921875,0.99853515625,-0.017333984375,2.31170654296875,-0.86212158203125,0.49591064453125
7.347415295000005,-0.00830078125,0.998291015625,-0.01806640625,2.2735595703125,-0.8697509765625,0.48065185546875
7.358245056000001,-0.0078125,0.998291015625,-0.018798828125,2.2735595703125,-0.8392333984375,0.49591064453125
7.367981087000004,-0.008544921875,0.99755859375,-0.0185546875,2.3193359375,-0.86212158203125,0.518798828125
7.378159871999998,-0.00830078125,0.998291015625,-0.0185546875,2.2735595703125,-0.8544921875,0.51116943359375
7.387912799000006,-0.00830078125,0.998291015625,-0.017822265625,2.29644775390625,-0.86212158203125,0.49591064453125
7.397699967999998,-0.008056640625,0.99853515625,-0.018310546875,2.2735595703125,-0.8544921875,0.48828125
7.407442239000005,-0.0087890625,0.998291015625,-0.018310546875,2.288818359375,-0.8544921875,0.4730224609375
7.4171934400000055,-0.00830078125,0.998046875,-0.0185546875,2.288818359375,-0.87738037109375,0.46539306640625
7.428026368000005,-0.0078125,0.998046875,-0.01806640625,2.25830078125,-0.8544921875,0.48828125
7.437751423999998,-0.0087890625,0.99755859375,-0.01904296875,2.28118896484375,-0.83160400390625,0.457763671875
7.447521280000004,-0.008544921875,0.997314453125,-0.018310546875,2.32696533203125,-0.823974609375,0.49591064453125
7.457282496000005,-0.008544921875,0.998291015625,-0.017822265625,2.3040771484375,-0.8392333984375,0.46539306640625
7.468099711999997,-0.0078125,0.99853515625,-0.018798828125,2.26593017578125,-0.84686279296875,0.457763671875
7.477827136000002,-0.0087890625,0.998046875,-0.017822265625,2.28118896484375,-0.8544921875,0.5035400390625
7.487571071000005,-0.008544921875,0.998046875,-0.01806640625,2.26593017578125,-0.86212158203125,0.48065185546875
7.497295903999998,-0.0078125,0.998046875,-0.0185546875,2.288818359375,-0.84686279296875,0.4425048828125
7.508113408,-0.0078125,0.998046875,-0.01806640625,2.29644775390625,-0.8544921875,0.45013427734375
7.5178374390000045,-0.008056640625,0.999267578125,-0.01806640625,2.288818359375,-0.8544921875,0.457763671875
7.527573215000004,-0.008544921875,0.9990234375,-0.018798828125,2.288818359375,-0.8697509765625,0.457763671875
7.537297408000001,-0.0078125,0.99853515625,-0.017822265625,2.3193359375,-0.86212158203125,0.4730224609375
7.548109535999998,-0.0078125,0.99853515625,-0.01806640625,2.28118896484375,-0.84686279296875,0.48065185546875
7.557832447999999,-0.008056640625,0.998779296875,-0.017578125,2.3040771484375,-0.8544921875,0.51116943359375
7.567555679999998,-0.0078125,0.998046875,-0.017822265625,2.2735595703125,-0.87738037109375,0.4730224609375
7.577294559999999,-0.008544921875,0.998291015625,-0.01806640625,2.2735595703125,-0.84686279296875,0.46539306640625
7.588110688,-0.008544921875,0.99853515625,-0.017822265625,2.29644775390625,-0.86212158203125,0.46539306640625
7.597835040000007,-0.008544921875,0.998046875,-0.017822265625,2.28118896484375,-0.86212158203125,0.48828125
7.6075600000000065,-0.008056640625,0.997802734375,-0.01806640625,2.3040771484375,-0.86212158203125,0.48065185546875
7.617283775000004,-0.0078125,0.998046875,-0.017822265625,2.3193359375,-0.8392333984375,0.48828125
7.628099488000004,-0.00830078125,0.99853515625,-0.017578125,2.288818359375,-0.8544921875,0.48065185546875
7.637820447999999,-0.00830078125,0.99853515625,-0.017333984375,2.28118896484375,-0.8544921875,0.5035400390625
7.647543872,-0.008056640625,0.99853515625,-0.017822265625,2.32696533203125,-0.86212158203125,0.5035400390625
7.6572914879999985,-0.008544921875,0.99853515625,-0.01806640625,2.288818359375,-0.86212158203125,0.48828125
7.668127647000006,-0.00830078125,0.998046875,-0.018310546875,2.288818359375,-0.8697509765625,0.49591064453125
7.677850336000006,-0.00830078125,0.998046875,-0.01806640625,2.2735595703125,-0.8544921875,0.48065185546875
7.687573216000004,-0.0078125,0.998291015625,-0.01806640625,2.3345947265625,-0.83160400390625,0.5035400390625
7.697347104000002,-0.00732421875,0.99755859375,-0.01806640625,2.32696533203125,-0.8544921875,0.46539306640625
7.708180704,-0.007568359375,0.998046875,-0.018310546875,2.29644775390625,-0.83160400390625,0.4730224609375
7.7179359360000035,-0.008544921875,0.997802734375,-0.01806640625,2.288818359375,-0.8392333984375,0.49591064453125
7.727674304000004,-0.008056640625,0.99853515625,-0.018310546875,2.28118896484375,-0.81634521484375,0.46539306640625
7.7373975040000005,-0.008056640625,0.998046875,-0.017822265625,2.28118896484375,-0.8544921875,0.4730224609375
7.748216831999997,-0.008544921875,0.998046875,-0.017333984375,2.29644775390625,-0.86212158203125,0.45013427734375
7.758020959999996,-0.008544921875,0.997314453125,-0.017578125,2.288818359375,-0.8697509765625,0.4730224609375
7.767749887999997,-0.0078125,0.998779296875,-0.018310546875,2.28118896484375,-0.8697509765625,0.48828125
7.777477215000005,-0.007568359375,0.998291015625,-0.017578125,2.3040771484375,-0.84686279296875,0.5035400390625
7.787231935999998,-0.0078125,0.998291015625,-0.01708984375,2.31170654296875,-0.86212158203125,0.457763671875
7.798053760000002,-0.008056640625,0.998046875,-0.01806640625,2.25830078125,-0.8544921875,0.4730224609375
7.807796128000007,-0.008056640625,0.998291015625,-0.01806640625,2.288818359375,-0.83160400390625,0.4730224609375
7.817531328000001,-0.008056640625,0.9990234375,-0.018310546875,2.28118896484375,-0.8392333984375,0.48065185546875
7.827302783999997,-0.0078125,0.99853515625,-0.017822265625,2.2735595703125,-0.83160400390625,0.48065185546875
7.838156928000004,-0.008544921875,0.99853515625,-0.01806640625,2.2735595703125,-0.8392333984375,0.48828125
7.847896448,-0.008544921875,0.998046875,-0.01806640625,2.2735595703125,-0.86212158203125,0.4730224609375
7.857651328000003,-0.00830078125,0.99853515625,-0.017578125,2.28118896484375,-0.84686279296875,0.4730224609375
7.867387871000005,-0.00830078125,0.998291015625,-0.017822265625,2.29644775390625,-0.8392333984375,0.5035400390625
7.878215711999999,-0.00830078125,0.998046875,-0.01708984375,2.288818359375,-0.84686279296875,0.457763671875
7.887948191999996,-0.00830078125,0.99853515625,-0.017578125,2.28118896484375,-0.86212158203125,0.48065185546875
7.897683775000004,-0.0087890625,0.998046875,-0.018310546875,2.3193359375,-0.8544921875,0.4730224609375
7.907647584000003,-0.008544921875,0.998046875,-0.01806640625,2.2735595703125,-0.8544921875,0.5035400390625
7.917544895000006,-0.00830078125,0.997802734375,-0.017333984375,2.2735595703125,-0.86212158203125,0.5035400390625
7.927330624000007,-0.00830078125,0.99853515625,-0.01806640625,2.2735595703125,-0.86212158203125,0.46539306640625
7.9381563510000035,-0.008056640625,0.998046875,-0.018310546875,2.28118896484375,-0.8392333984375,0.4730224609375
7.947995808000002,-0.0087890625,0.998046875,-0.018310546875,2.28118896484375,-0.86212158203125,0.5035400390625
7.957734208000005,-0.009033203125,0.998291015625,-0.017822265625,2.2735595703125,-0.83160400390625,0.48065185546875
7.967475936,-0.00830078125,0.997802734375,-0.018310546875,2.28118896484375,-0.8544921875,0.4730224609375
7.977226239000004,-0.008056640625,0.998046875,-0.017822265625,2.2735595703125,-0.86212158203125,0.457763671875
7.988057471000005,-0.00830078125,0.9990234375,-0.018310546875,2.288818359375,-0.8544921875,0.46539306640625
7.9977787199999995,-0.008056640625,0.99853515625,-0.018310546875,2.28118896484375,-0.86212158203125,0.48065185546875
8.007530271999997,-0.00830078125,0.99853515625,-0.018310546875,2.29644775390625,-0.8697509765625,0.46539306640625
8.017297471000006,-0.00830078125,0.998046875,-0.017578125,2.3040771484375,-0.8697509765625,0.48065185546875
8.028121088000006,-0.00830078125,0.99853515625,-0.01806640625,2.25830078125,-0.8697509765625,0.4730224609375
8.037844543000006,-0.008544921875,0.9990234375,-0.017578125,2.25830078125,-0.8392333984375,0.46539306640625
8.047580224,-0.008056640625,0.998291015625,-0.017333984375,2.288818359375,-0.8544921875,0.48065185546875
8.057327295999997,-0.008544921875,0.998291015625,-0.01708984375,2.29644775390625,-0.86212158203125,0.457763671875
8.068142495000004,-0.00830078125,0.998779296875,-0.01806640625,2.28118896484375,-0.86212158203125,0.46539306640625
8.077896831000004,-0.008056640625,0.998291015625,-0.018310546875,2.2735595703125,-0.87738037109375,0.51116943359375
8.087654623000006,-0.00732421875,0.99853515625,-0.01806640625,2.31170654296875,-0.8697509765625,0.518798828125
8.097376127000004,-0.008544921875,0.99853515625,-0.01806640625,2.288818359375,-0.8544921875,0.48828125
8.108187967000006,-0.0087890625,0.99853515625,-0.01806640625,2.29644775390625,-0.83160400390625,0.4730224609375
8.117909343999997,-0.008056640625,0.998291015625,-0.01806640625,2.29644775390625,-0.8697509765625,0.49591064453125
8.127653151000004,-0.0087890625,0.998779296875,-0.01806640625,2.28118896484375,-0.83160400390625,0.43487548828125
8.137374624000003,-0.008056640625,0.998291015625,-0.017822265625,2.2735595703125,-0.8544921875,0.49591064453125
8.148188160000004,-0.00830078125,0.998046875,-0.017822265625,2.26593017578125,-0.87738037109375,0.49591064453125
8.158015168000006,-0.00830078125,0.998291015625,-0.017578125,2.25830078125,-0.8544921875,0.4730224609375
8.167779456000005,-0.00830078125,0.998291015625,-0.01806640625,2.3040771484375,-0.86212158203125,0.49591064453125
8.17754352,-0.00830078125,0.997314453125,-0.017822265625,2.3040771484375,-0.86212158203125,0.46539306640625
8.187286975000006,-0.008544921875,0.99853515625,-0.017822265625,2.29644775390625,-0.8392333984375,0.4730224609375
8.198096000000007,-0.008056640625,0.99853515625,-0.01806640625,2.26593017578125,-0.83160400390625,0.4730224609375
8.207818880000005,-0.008056640625,0.99755859375,-0.017333984375,2.29644775390625,-0.8697509765625,0.45013427734375
8.217537280000002,-0.0078125,0.99853515625,-0.01806640625,2.28118896484375,-0.86212158203125,0.48065185546875
8.227297280000002,-0.008544921875,0.998291015625,-0.017333984375,2.29644775390625,-0.84686279296875,0.48065185546875
8.238107839999998,-0.00830078125,0.998291015625,-0.018310546875,2.28118896484375,-0.8544921875,0.46539306640625
8.247827487999999,-0.0078125,0.997802734375,-0.01806640625,2.288818359375,-0.8392333984375,0.49591064453125
8.257545407999999,-0.008056640625,0.99853515625,-0.01806640625,2.25067138671875,-0.8544921875,0.48065185546875
8.267287776000003,-0.008056640625,0.99755859375,-0.01806640625,2.28118896484375,-0.86212158203125,0.51116943359375
8.278094015999997,-0.0078125,0.997802734375,-0.01708984375,2.25067138671875,-0.8544921875,0.48828125
8.287822016000007,-0.0078125,0.997802734375,-0.01806640625,2.25830078125,-0.8544921875,0.4730224609375
8.297540416000004,-0.008544921875,0.998779296875,-0.01806640625,2.29644775390625,-0.8544921875,0.49591064453125
8.307305024000001,-0.008544921875,0.99853515625,-0.01806640625,2.29644775390625,-0.87738037109375,0.48065185546875
8.318124768000004,-0.008544921875,0.998779296875,-0.018310546875,2.25067138671875,-0.8544921875,0.49591064453125
8.327861663999997,-0.00830078125,0.998046875,-0.01806640625,2.2735595703125,-0.8544921875,0.48065185546875
8.337579775999998,-0.008056640625,0.998779296875,-0.017822265625,2.288818359375,-0.8697509765625,0.48065185546875
8.34730288,-0.00830078125,0.998046875,-0.018310546875,2.2735595703125,-0.86212158203125,0.4730224609375
8.358128863000005,-0.0087890625,0.998046875,-0.018310546875,2.25067138671875,-0.86212158203125,0.49591064453125
8.367852576000004,-0.0087890625,0.99755859375,-0.01806640625,2.2735595703125,-0.8544921875,0.4730224609375
8.377569152000007,-0.0087890625,0.997802734375,-0.017578125,2.288818359375,-0.8392333984375,0.457763671875
8.387291872000006,-0.0087890625,0.99853515625,-0.017578125,2.29644775390625,-0.8544921875,0.4730224609375
8.39810688,-0.008056640625,0.998046875,-0.017822265625,2.3040771484375,-0.86212158203125,0.5035400390625
8.407828800000004,-0.00830078125,0.997802734375,-0.01806640625,2.3040771484375,-0.8544921875,0.48065185546875
8.417550112,-0.007568359375,0.99853515625,-0.01806640625,2.288818359375,-0.8697509765625,0.49591064453125
8.427283071000005,-0.007568359375,0.998291015625,-0.017578125,2.3040771484375,-0.8544921875,0.49591064453125
8.438103519999999,-0.008056640625,0.998291015625,-0.017333984375,2.2735595703125,-0.86212158203125,0.518798828125
8.447831968000003,-0.008544921875,0.99853515625,-0.018310546875,2.2735595703125,-0.84686279296875,0.48828125
8.457587103999998,-0.0078125,0.998046875,-0.017822265625,2.288818359375,-0.86212158203125,0.46539306640625
8.467317215999998,-0.00830078125,0.998046875,-0.01806640625,2.288818359375,-0.8392333984375,0.48065185546875
8.478133376000002,-0.008544921875,0.99853515625,-0.018310546875,2.29644775390625,-0.8544921875,0.51116943359375
8.487855519999997,-0.008544921875,0.997802734375,-0.017822265625,2.31170654296875,-0.86212158203125,0.46539306640625
8.497599551999997,-0.0078125,0.997802734375,-0.018310546875,2.2735595703125,-0.86212158203125,0.49591064453125
8.507325023999996,-0.008056640625,0.998779296875,-0.01806640625,2.23541259765625,-0.8392333984375,0.4730224609375
8.518135712000003,-0.00830078125,0.99853515625,-0.01806640625,2.2735595703125,-0.8697509765625,0.457763671875
8.527857311000005,-0.008544921875,0.998291015625,-0.017578125,2.2735595703125,-0.8697509765625,0.48065185546875
8.53758096,-0.00830078125,0.998779296875,-0.01708984375,2.3040771484375,-0.86212158203125,0.49591064453125
8.547314176,-0.008056640625,0.998291015625,-0.017578125,2.3040771484375,-0.8697509765625,0.49591064453125
8.558129984000004,-0.008056640625,0.99853515625,-0.018798828125,2.3040771484375,-0.86212158203125,0.4730224609375
8.567857184000005,-0.008056640625,0.99853515625,-0.01806640625,2.25830078125,-0.84686279296875,0.4730224609375
8.577625183999999,-0.008056640625,0.99853515625,-0.017578125,2.2735595703125,-0.86212158203125,0.48065185546875
8.587353695000004,-0.0078125,0.99853515625,-0.017822265625,2.2735595703125,-0.84686279296875,0.48065185546875
8.598171391999998,-0.008056640625,0.998291015625,-0.01806640625,2.2735595703125,-0.8544921875,0.457763671875
8.607914976000004,-0.008056640625,0.998779296875,-0.017822265625,2.2735595703125,-0.86212158203125,0.49591064453125
8.617678752000003,-0.008544921875,0.998291015625,-0.017333984375,2.288818359375,-0.8392333984375,0.4730224609375
8.627407840000004,-0.00830078125,0.998291015625,-0.017822265625,2.28118896484375,-0.8392333984375,0.46539306640625
8.638225632000001,-0.008056640625,0.99853515625,-0.017578125,2.28118896484375,-0.86212158203125,0.49591064453125
8.647956960000002,-0.0087890625,0.99853515625,-0.01806640625,2.28118896484375,-0.8392333984375,0.46539306640625
8.657683199000004,-0.008056640625,0.998779296875,-0.017578125,2.29644775390625,-0.86212158203125,0.518798828125
8.667427967999998,-0.008544921875,0.998291015625,-0.018310546875,2.29644775390625,-0.8392333984375,0.49591064453125
8.678279455999999,-0.00830078125,0.99853515625,-0.01806640625,2.288818359375,-0.8544921875,0.5035400390625
8.688037280000003,-0.008544921875,0.99853515625,-0.017333984375,2.25067138671875,-0.8392333984375,0.48828125
8.69775808,-0.0087890625,0.998046875,-0.017333984375,2.28118896484375,-0.86212158203125,0.45013427734375
8.707496415999998,-0.00830078125,0.998046875,-0.017822265625,2.3040771484375,-0.86212158203125,0.457763671875
8.717245407999997,-0.0078125,0.997802734375,-0.017333984375,2.29644775390625,-0.86212158203125,0.48828125
8.728062335000004,-0.008056640625,0.998046875,-0.01708984375,2.28118896484375,-0.8544921875,0.48065185546875
8.737787167999997,-0.008544921875,0.998046875,-0.017333984375,2.28118896484375,-0.84686279296875,0.4730224609375
8.747539807999999,-0.008544921875,0.997802734375,-0.01806640625,2.29644775390625,-0.87738037109375,0.46539306640625
8.757296448000005,-0.0078125,0.99853515625,-0.018310546875,2.29644775390625,-0.86212158203125,0.457763671875
8.768113248000006,-0.007568359375,0.99853515625,-0.017822265625,2.288818359375,-0.8544921875,0.457763671875
8.777837087999998,-0.0078125,0.99853515625,-0.01806640625,2.2735595703125,-0.8392333984375,0.46539306640625
8.787561823000004,-0.0078125,0.998046875,-0.01806640625,2.3040771484375,-0.86212158203125,0.48065185546875
8.797293088000004,-0.00830078125,0.997802734375,-0.017333984375,2.26593017578125,-0.86212158203125,0.5035400390625
8.808113472000002,-0.008056640625,0.998291015625,-0.01806640625,2.29644775390625,-0.86212158203125,0.46539306640625
8.817851168000004,-0.00830078125,0.99853515625,-0.017333984375,2.3040771484375,-0.83160400390625,0.46539306640625
8.827580863999998,-0.008056640625,0.998779296875,-0.017822265625,2.29644775390625,-0.84686279296875,0.46539306640625
8.837328768000006,-0.0078125,0.99853515625,-0.01806640625,2.3040771484375,-0.8697509765625,0.48065185546875
8.848149664000005,-0.008056640625,0.998046875,-0.01806640625,2.2735595703125,-0.8544921875,0.4730224609375
8.857905759000005,-0.00830078125,0.998291015625,-0.017333984375,2.2735595703125,-0.86212158203125,0.4730224609375
8.867666303999997,-0.008056640625,0.998779296875,-0.017578125,2.29644775390625,-0.84686279296875,0.49591064453125
8.877386720000004,-0.0078125,0.99853515625,-0.017822265625,2.28118896484375,-0.8392333984375,0.48065185546875
8.888201600000002,-0.008056640625,0.99853515625,-0.01708984375,2.28118896484375,-0.8544921875,0.46539306640625
8.897921695999997,-0.00830078125,0.997802734375,-0.018310546875,2.3345947265625,-0.86212158203125,0.48065185546875
8.907678591999996,-0.00830078125,0.99853515625,-0.01806640625,2.288818359375,-0.84686279296875,0.49591064453125
8.917406368000002,-0.008056640625,0.99853515625,-0.01806640625,2.28118896484375,-0.8544921875,0.49591064453125
8.928231744000001,-0.0078125,0.998779296875,-0.017822265625,2.29644775390625,-0.8697509765625,0.4730224609375
8.937962720000002,-0.008544921875,0.998291015625,-0.01806640625,2.2735595703125,-0.87738037109375,0.4730224609375
8.947691423999999,-0.008056640625,0.998291015625,-0.018310546875,2.28118896484375,-0.8544921875,0.4730224609375
8.957415584000003,-0.008056640625,0.998291015625,-0.017578125,2.29644775390625,-0.84686279296875,0.48828125
8.967348576000006,-0.00830078125,0.99853515625,-0.01806640625,2.288818359375,-0.84686279296875,0.49591064453125
8.978280256000005,-0.008544921875,0.998291015625,-0.018310546875,2.2735595703125,-0.8392333984375,0.48065185546875
8.988042207999996,-0.008056640625,0.998046875,-0.0185546875,2.288818359375,-0.8697509765625,0.48828125
8.997772448000006,-0.00830078125,0.99853515625,-0.01806640625,2.28118896484375,-0.83160400390625,0.46539306640625
9.007512128000002,-0.0078125,0.998046875,-0.017822265625,2.25830078125,-0.83160400390625,0.4730224609375
9.017266591999999,-0.008056640625,0.99853515625,-0.01806640625,2.25067138671875,-0.84686279296875,0.49591064453125
9.028090976000001,-0.0078125,0.998046875,-0.017822265625,2.29644775390625,-0.8392333984375,0.48065185546875
9.037815936000001,-0.0078125,0.998046875,-0.01806640625,2.28118896484375,-0.8544921875,0.49591064453125
9.047545728000003,-0.00830078125,0.99853515625,-0.017822265625,2.28118896484375,-0.86212158203125,0.457763671875
9.057318175000006,-0.00830078125,0.997802734375,-0.01806640625,2.2735595703125,-0.8697509765625,0.46539306640625
9.068145599000005,-0.008056640625,0.998046875,-0.0185546875,2.28118896484375,-0.86212158203125,0.51116943359375
9.077872768000006,-0.008056640625,0.998291015625,-0.01806640625,2.29644775390625,-0.84686279296875,0.48828125
9.087600608000002,-0.008544921875,0.998779296875,-0.017822265625,2.28118896484375,-0.87738037109375,0.46539306640625
9.097350496000004,-0.00830078125,0.99853515625,-0.017822265625,2.25067138671875,-0.8544921875,0.48065185546875
9.10816912,-0.008544921875,0.998046875,-0.01806640625,2.288818359375,-0.84686279296875,0.49591064453125
9.117908512,-0.0078125,0.998291015625,-0.01806640625,2.31170654296875,-0.83160400390625,0.457763671875
9.127670624000004,-0.00830078125,0.99853515625,-0.017578125,2.2735595703125,-0.8392333984375,0.4730224609375
9.137400576000005,-0.008056640625,0.998291015625,-0.017578125,2.3040771484375,-0.8544921875,0.46539306640625
9.148291200000003,-0.00830078125,0.998046875,-0.017822265625,2.288818359375,-0.8697509765625,0.48065185546875
9.158051487999998,-0.007568359375,0.99853515625,-0.017822265625,2.32696533203125,-0.86212158203125,0.4730224609375
9.167802335000005,-0.00830078125,0.998046875,-0.017822265625,2.29644775390625,-0.8392333984375,0.49591064453125
9.177528383999999,-0.008544921875,0.998046875,-0.01806640625,2.3193359375,-0.8544921875,0.48828125
9.188348095999999,-0.008056640625,0.998046875,-0.01806640625,2.288818359375,-0.87738037109375,0.4730224609375
9.198071264000006,-0.00830078125,0.99853515625,-0.01806640625,2.288818359375,-0.8544921875,0.49591064453125
9.207813983999998,-0.009033203125,0.998046875,-0.018310546875,2.2735595703125,-0.8697509765625,0.518798828125
9.217573471999998,-0.008544921875,0.99755859375,-0.01806640625,2.288818359375,-0.8544921875,0.46539306640625
9.227317216000003,-0.0078125,0.99853515625,-0.017578125,2.3040771484375,-0.87738037109375,0.49591064453125
9.238129151999999,-0.008056640625,0.998779296875,-0.017578125,2.3193359375,-0.8392333984375,0.46539306640625
9.247870079999998,-0.009033203125,0.998779296875,-0.017822265625,2.29644775390625,-0.8544921875,0.46539306640625
9.257624031000006,-0.00830078125,0.998291015625,-0.01806640625,2.29644775390625,-0.8392333984375,0.45013427734375
9.267353119000006,-0.008544921875,0.998779296875,-0.01806640625,2.28118896484375,-0.84686279296875,0.48828125
9.278171615000005,-0.008544921875,0.998046875,-0.01806640625,2.288818359375,-0.8544921875,0.51116943359375
9.287915519999999,-0.0087890625,0.997314453125,-0.017822265625,2.288818359375,-0.8697509765625,0.5035400390625
9.297670879999998,-0.0087890625,0.99755859375,-0.01806640625,2.28118896484375,-0.86212158203125,0.46539306640625
9.307776288,-0.00830078125,0.998291015625,-0.018310546875,2.288818359375,-0.86212158203125,0.48065185546875
9.317546624000002,-0.0087890625,0.99853515625,-0.018310546875,2.288818359375,-0.8697509765625,0.51116943359375
9.327403071000006,-0.0078125,0.998779296875,-0.01806640625,2.288818359375,-0.86212158203125,0.4425048828125
9.338251967000005,-0.008544921875,0.99853515625,-0.017578125,2.2735595703125,-0.8544921875,0.49591064453125
9.348218271999997,-0.008544921875,0.99853515625,-0.017578125,2.2735595703125,-0.8544921875,0.48065185546875
9.358005375000005,-0.0078125,0.997802734375,-0.018310546875,2.288818359375,-0.8392333984375,0.48065185546875
