timestamp,accel_x,accel_y,accel_z,gyro_x,gyro_y,gyro_z
0.0006492979999848103,-0.0078125,0.99853515625,-0.018310546875,2.29644775390625,-0.885009765625,0.43487548828125
0.0006978739130545364,-0.008056640625,0.998046875,-0.017822265625,2.29644775390625,-0.86212158203125,0.46539306640625
0.0007464498261242625,-0.00830078125,0.99755859375,-0.01806640625,2.3193359375,-0.86212158203125,0.46539306640625
0.0007950257390803017,-0.007568359375,0.99755859375,-0.017822265625,2.32696533203125,-0.86212158203125,0.46539306640625
0.0008436016521500278,-0.008056640625,0.99853515625,-0.017578125,2.3040771484375,-0.83160400390625,0.48065185546875
0.0008921775652197539,-0.008544921875,0.99853515625,-0.018798828125,2.26593017578125,-0.8544921875,0.5035400390625
0.00094075347828948,-0.00830078125,0.998779296875,-0.018310546875,2.2735595703125,-0.8544921875,0.49591064453125
0.0009893293912455192,-0.0078125,0.998779296875,-0.01806640625,2.2735595703125,-0.86212158203125,0.49591064453125
0.0010379053043152453,-0.0078125,0.998291015625,-0.017822265625,2.3193359375,-0.8544921875,0.5035400390625
0.0010864812173849714,-0.008544921875,0.99755859375,-0.017822265625,2.29644775390625,-0.83160400390625,0.48065185546875
0.0011350571304546975,-0.008544921875,0.998046875,-0.017822265625,2.25830078125,-0.86212158203125,0.4730224609375
0.0011836330435244236,-0.00830078125,0.998779296875,-0.017822265625,2.3040771484375,-0.8697509765625,0.4730224609375
0.0012322089564804628,-0.00830078125,0.99853515625,-0.017822265625,2.288818359375,-0.8544921875,0.518798828125
0.0012807848695501889,-0.00830078125,0.998046875,-0.0185546875,2.29644775390625,-0.8544921875,0.49591064453125
0.001329360782619915,-0.00830078125,0.997802734375,-0.018310546875,2.3040771484375,-0.84686279296875,0.48065185546875
0.001377936695689641,-0.00830078125,0.99853515625,-0.0185546875,2.3040771484375,-0.8544921875,0.45013427734375
0.0014265126087593671,-0.0078125,0.998291015625,-0.01806640625,2.29644775390625,-0.8392333984375,0.457763671875
0.0014750885217154064,-0.008544921875,0.998291015625,-0.01806640625,2.288818359375,-0.885009765625,0.457763671875
0.0015236644347851325,-0.009033203125,0.998291015625,-0.0185546875,2.288818359375,-0.84686279296875,0.5035400390625
0.0015722403478548586,-0.008544921875,0.998291015625,-0.01806640625,2.29644775390625,-0.8697509765625,0.4730224609375
0.0016208162609245846,-0.00830078125,0.998046875,-0.018310546875,2.3193359375,-0.8697509765625,0.48828125
0.0016693921738806239,-0.00830078125,0.998046875,-0.01806640625,2.29644775390625,-0.8544921875,0.48065185546875
0.00171796808695035,-0.00830078125,0.997314453125,-0.018310546875,2.28118896484375,-0.885009765625,0.48065185546875
0.001766544000020076,-0.00830078125,0.998046875,-0.018310546875,2.26593017578125,-0.885009765625,0.48065185546875
0.0018185384348043954,-0.008056640625,0.998779296875,-0.01806640625,2.2735595703125,-0.86212158203125,0.46539306640625
0.0018705328695887147,-0.0087890625,0.998779296875,-0.018310546875,2.3040771484375,-0.8392333984375,0.4730224609375
0.001922527304373034,-0.008056640625,0.998291015625,-0.017578125,2.28118896484375,-0.8697509765625,0.46539306640625
0.0019745217391573533,-0.00830078125,0.998046875,-0.018798828125,2.3040771484375,-0.8544921875,0.48065185546875
0.0020265161739416726,-0.00830078125,0.998046875,-0.018310546875,2.29644775390625,-0.84686279296875,0.43487548828125
0.002078510608725992,-0.0087890625,0.998046875,-0.017822265625,2.288818359375,-0.8697509765625,0.457763671875
0.0021305050435103112,-0.008544921875,0.998291015625,-0.018310546875,2.28118896484375,-0.8544921875,0.46539306640625
0.0021824994782946305,-0.00830078125,0.998046875,-0.017822265625,2.28118896484375,-0.86212158203125,0.46539306640625
0.00223449391307895,-0.00830078125,0.99755859375,-0.01806640625,2.29644775390625,-0.84686279296875,0.49591064453125
0.002286488347863269,-0.00830078125,0.998046875,-0.017578125,2.288818359375,-0.86212158203125,0.48065185546875
0.0023384827826475885,-0.009033203125,0.99853515625,-0.018310546875,2.29644775390625,-0.8697509765625,0.4730224609375
0.002390477217318221,-0.008544921875,0.99853515625,-0.018310546875,2.3040771484375,-0.86212158203125,0.46539306640625
0.0024424716521025402,-0.00830078125,0.998046875,-0.018310546875,2.31170654296875,-0.84686279296875,0.49591064453125
0.0024944660868868596,-0.00830078125,0.998779296875,-0.018310546875,2.25830078125,-0.8544921875,0.49591064453125
0.002546460521671179,-0.00830078125,0.99755859375,-0.01806640625,2.2735595703125,-0.86212158203125,0.48828125
0.002598454956455498,-0.00830078125,0.997802734375,-0.01806640625,2.3040771484375,-0.83160400390625,0.48065185546875
0.0026504493912398175,-0.008544921875,0.998046875,-0.017333984375,2.3040771484375,-0.8697509765625,0.4730224609375
0.002702443826024137,-0.008056640625,0.998046875,-0.017822265625,2.26593017578125,-0.86212158203125,0.49591064453125
0.002754438260808456,-0.008544921875,0.99853515625,-0.01806640625,2.288818359375,-0.8392333984375,0.51116943359375
0.0028064326955927754,-0.0078125,0.998291015625,-0.018310546875,2.29644775390625,-0.86212158203125,0.49591064453125
0.0028584271303770947,-0.0078125,0.99853515625,-0.018310546875,2.3040771484375,-0.8544921875,0.46539306640625
0.002910421565161414,-0.008544921875,0.99853515625,-0.01806640625,2.288818359375,-0.8392333984375,0.4730224609375
0.0029624159999457333,-0.0078125,0.998291015625,-0.017822265625,2.28118896484375,-0.8392333984375,0.5035400390625
0.003014062454440136,-0.00830078125,0.997802734375,-0.018310546875,2.288818359375,-0.8392333984375,0.49591064453125
0.003065708909048226,-0.008544921875,0.998291015625,-0.017578125,2.2735595703125,-0.86212158203125,0.5035400390625
0.0031173553635426288,-0.008544921875,0.998046875,-0.018310546875,2.2735595703125,-0.86212158203125,0.51116943359375
0.0031690018181507185,-0.008544921875,0.998291015625,-0.01806640625,2.29644775390625,-0.86212158203125,0.5035400390625
0.0032206482726451213,-0.0078125,0.998046875,-0.01904296875,2.34222412109375,-0.86212158203125,0.48065185546875
0.003272294727253211,-0.0087890625,0.997802734375,-0.01806640625,2.29644775390625,-0.8392333984375,0.48065185546875
0.003323941181747614,-0.008056640625,0.997802734375,-0.01806640625,2.28118896484375,-0.84686279296875,0.4730224609375
0.0033755876363557036,-0.00830078125,0.998291015625,-0.017822265625,2.32696533203125,-0.86212158203125,0.48828125
0.0034272340908501064,-0.008056640625,0.99853515625,-0.01806640625,2.288818359375,-0.8697509765625,0.49591064453125
0.003478880545458196,-0.0078125,0.99853515625,-0.018310546875,2.288818359375,-0.8544921875,0.49591064453125
0.003530526999952599,-0.008056640625,0.998291015625,-0.018310546875,2.288818359375,-0.84686279296875,0.51116943359375
0.003582173454447002,-0.0078125,0.998046875,-0.017822265625,2.28118896484375,-0.84686279296875,0.48828125
0.0036338199090550916,-0.00830078125,0.998291015625,-0.01806640625,2.29644775390625,-0.86212158203125,0.4730224609375
0.0036854663635494944,-0.00830078125,0.99853515625,-0.018798828125,2.2735595703125,-0.87738037109375,0.4730224609375
0.003737112818157584,-0.00830078125,0.997802734375,-0.0185546875,2.3040771484375,-0.8392333984375,0.4730224609375
0.003788759272651987,-0.008544921875,0.997802734375,-0.0185546875,2.3040771484375,-0.8392333984375,0.5035400390625
0.0038404057272600767,-0.00830078125,0.998046875,-0.0185546875,2.3040771484375,-0.8544921875,0.51116943359375
0.0038920521817544795,-0.009033203125,0.998046875,-0.018310546875,2.29644775390625,-0.86212158203125,0.46539306640625
0.003943698636362569,-0.0078125,0.998291015625,-0.018798828125,2.3040771484375,-0.86212158203125,0.457763671875
0.003995345090856972,-0.00830078125,0.998291015625,-0.01904296875,2.28118896484375,-0.8544921875,0.48828125
0.004046991545465062,-0.0078125,0.998046875,-0.01806640625,2.3193359375,-0.8697509765625,0.4730224609375
0.004098637999959465,-0.00830078125,0.998291015625,-0.017822265625,2.25830078125,-0.8544921875,0.48065185546875
0.0041471986086207835,-0.0078125,0.9990234375,-0.018310546875,2.3040771484375,-0.8544921875,0.48065185546875
0.004195759217395789,-0.00830078125,0.99853515625,-0.01806640625,2.3040771484375,-0.86212158203125,0.48828125
0.004244319826057108,-0.00830078125,0.997802734375,-0.018310546875,2.3193359375,-0.84686279296875,0.4730224609375
0.004292880434718427,-0.00927734375,0.998291015625,-0.018310546875,2.288818359375,-0.8544921875,0.49591064453125
0.0043414410434934325,-0.008056640625,0.99853515625,-0.017822265625,2.2735595703125,-0.84686279296875,0.5035400390625
0.004390001652154751,-0.007568359375,0.99853515625,-0.0185546875,2.25067138671875,-0.86212158203125,0.51116943359375
0.00443856226081607,-0.008544921875,0.998291015625,-0.0185546875,2.2735595703125,-0.84686279296875,0.49591064453125
0.004487122869477389,-0.009033203125,0.998046875,-0.0185546875,2.3040771484375,-0.8392333984375,0.48065185546875
0.004535683478252395,-0.008544921875,0.998046875,-0.017578125,2.28118896484375,-0.8544921875,0.5035400390625
0.0045842440869137135,-0.008056640625,0.99853515625,-0.017822265625,2.3040771484375,-0.8697509765625,0.52642822265625
0.004632804695575032,-0.0087890625,0.99853515625,-0.01806640625,2.2735595703125,-0.8697509765625,0.48065185546875
0.004681365304350038,-0.0087890625,0.998779296875,-0.017822265625,2.288818359375,-0.8544921875,0.46539306640625
0.004729925913011357,-0.008056640625,0.998046875,-0.017822265625,2.29644775390625,-0.8544921875,0.48065185546875
0.004778486521672676,-0.008544921875,0.998046875,-0.018310546875,2.288818359375,-0.86212158203125,0.48065185546875
0.004827047130447681,-0.008544921875,0.998046875,-0.018310546875,2.28118896484375,-0.86212158203125,0.4730224609375
0.004875607739109,-0.009033203125,0.998779296875,-0.017822265625,2.288818359375,-0.8544921875,0.457763671875
0.004924168347770319,-0.008544921875,0.99853515625,-0.017822265625,2.28118896484375,-0.84686279296875,0.46539306640625
0.004972728956431638,-0.008544921875,0.998046875,-0.017822265625,2.288818359375,-0.8544921875,0.48065185546875
0.005021289565206644,-0.008544921875,0.998046875,-0.018310546875,2.29644775390625,-0.84686279296875,0.518798828125
0.0050698501738679624,-0.00830078125,0.998046875,-0.018310546875,2.3040771484375,-0.84686279296875,0.48065185546875
0.005118410782529281,-0.00830078125,0.998046875,-0.017822265625,2.28118896484375,-0.87738037109375,0.48828125
0.005166971391304287,-0.008056640625,0.998046875,-0.01806640625,2.288818359375,-0.86212158203125,0.4730224609375
0.005215531999965606,-0.00830078125,0.998291015625,-0.01806640625,2.28118896484375,-0.8392333984375,0.48828125
0.005264167739142067,-0.008544921875,0.998046875,-0.0185546875,2.3040771484375,-0.84686279296875,0.48065185546875
0.005312803478204842,-0.0078125,0.997802734375,-0.017822265625,2.29644775390625,-0.86212158203125,0.4730224609375
0.005361439217381303,-0.008544921875,0.998046875,-0.018310546875,2.28118896484375,-0.84686279296875,0.51116943359375
0.0054100749564440775,-0.0078125,0.99853515625,-0.018310546875,2.3040771484375,-0.8697509765625,0.4730224609375
0.005458710695620539,-0.008544921875,0.99853515625,-0.018310546875,2.3040771484375,-0.8697509765625,0.49591064453125
0.005507346434797,-0.0087890625,0.99853515625,-0.01806640625,2.288818359375,-0.8544921875,0.48065185546875
0.005555982173859775,-0.0087890625,0.998779296875,-0.01806640625,2.29644775390625,-0.8697509765625,0.48065185546875
0.005604617913036236,-0.009033203125,0.997802734375,-0.018310546875,2.29644775390625,-0.87738037109375,0.4730224609375
0.005653253652099011,-0.00830078125,0.998046875,-0.01806640625,2.3193359375,-0.8544921875,0.49591064453125
0.005701889391275472,-0.0087890625,0.998046875,-0.01806640625,2.29644775390625,-0.8697509765625,0.48828125
0.005750525130451933,-0.009033203125,0.998291015625,-0.018798828125,2.288818359375,-0.87738037109375,0.5035400390625
0.005799160869514708,-0.009033203125,0.99853515625,-0.018310546875,2.29644775390625,-0.8544921875,0.4730224609375
0.005847796608691169,-0.0078125,0.998291015625,-0.01806640625,2.288818359375,-0.86212158203125,0.48065185546875
0.005896432347867631,-0.0078125,0.998291015625,-0.017822265625,2.28118896484375,-0.87738037109375,0.48065185546875
0.005945068086930405,-0.0078125,0.99853515625,-0.018310546875,2.288818359375,-0.8544921875,0.42724609375
0.0059937038261068665,-0.008544921875,0.998046875,-0.018310546875,2.28118896484375,-0.8697509765625,0.48065185546875
0.006042339565169641,-0.008544921875,0.99853515625,-0.019287109375,2.32696533203125,-0.87738037109375,0.4730224609375
0.006090975304346102,-0.00830078125,0.9990234375,-0.01806640625,2.32696533203125,-0.8697509765625,0.48065185546875
0.006139611043522564,-0.008056640625,0.998779296875,-0.01806640625,2.2735595703125,-0.8697509765625,0.49591064453125
0.006188246782585338,-0.0078125,0.9990234375,-0.01806640625,2.288818359375,-0.84686279296875,0.48065185546875
0.0062368825217618,-0.00830078125,0.998779296875,-0.01806640625,2.3040771484375,-0.84686279296875,0.48065185546875
0.006285518260824574,-0.0087890625,0.998291015625,-0.017822265625,2.3040771484375,-0.8544921875,0.5340576171875
0.0063341540000010355,-0.00830078125,0.99853515625,-0.017578125,2.31170654296875,-0.86212158203125,0.49591064453125
0.006384878227322588,-0.0078125,0.998779296875,-0.01806640625,2.288818359375,-0.86212158203125,0.49591064453125
0.0064356024545304535,-0.008544921875,0.99853515625,-0.017822265625,2.28118896484375,-0.8697509765625,0.4730224609375
0.006486326681852006,-0.00830078125,0.997802734375,-0.018310546875,2.3040771484375,-0.87738037109375,0.4730224609375
0.006537050909059872,-0.00830078125,0.99755859375,-0.017822265625,2.288818359375,-0.885009765625,0.49591064453125
0.006587775136381424,-0.0078125,0.998046875,-0.01806640625,2.2735595703125,-0.8544921875,0.49591064453125
0.00663849936358929,-0.00830078125,0.998779296875,-0.018310546875,2.3040771484375,-0.8697509765625,0.4730224609375
0.006689223590910842,-0.0078125,0.998779296875,-0.017822265625,2.29644775390625,-0.8697509765625,0.4730224609375
0.006739947818118708,-0.007568359375,0.997802734375,-0.01806640625,2.31170654296875,-0.8392333984375,0.49591064453125
0.00679067204544026,-0.0078125,0.998046875,-0.018310546875,2.3193359375,-0.8544921875,0.457763671875
0.006841396272648126,-0.008056640625,0.998291015625,-0.017822265625,2.3193359375,-0.86212158203125,0.4730224609375
0.006892120499969678,-0.008544921875,0.998046875,-0.017822265625,2.28118896484375,-0.86212158203125,0.51116943359375
0.006942844727291231,-0.008056640625,0.998046875,-0.01806640625,2.28118896484375,-0.87738037109375,0.457763671875
0.0069935689544990964,-0.008544921875,0.998291015625,-0.017333984375,2.29644775390625,-0.8544921875,0.46539306640625
0.007044293181820649,-0.0087890625,0.998291015625,-0.018310546875,2.3193359375,-0.885009765625,0.46539306640625
0.0070950174090285145,-0.00830078125,0.998291015625,-0.01806640625,2.31170654296875,-0.885009765625,0.5035400390625
0.007145741636350067,-0.008544921875,0.998046875,-0.017578125,2.3040771484375,-0.83160400390625,0.48065185546875
0.007196465863557933,-0.00830078125,0.99853515625,-0.01806640625,2.29644775390625,-0.84686279296875,0.46539306640625
0.007247190090879485,-0.007568359375,0.998291015625,-0.0185546875,2.3040771484375,-0.84686279296875,0.48828125
0.007297914318087351,-0.0078125,0.998291015625,-0.018310546875,2.3040771484375,-0.86212158203125,0.4730224609375
0.007348638545408903,-0.0078125,0.99853515625,-0.017578125,2.2735595703125,-0.8697509765625,0.49591064453125
0.007399362772616769,-0.0078125,0.99853515625,-0.01806640625,2.31170654296875,-0.87738037109375,0.49591064453125
0.007450086999938321,-0.0078125,0.997802734375,-0.018310546875,2.288818359375,-0.8544921875,0.48828125
0.0075015749999920445,-0.008056640625,0.998291015625,-0.018310546875,2.3040771484375,-0.8697509765625,0.48065185546875
0.007553062999932081,-0.00830078125,0.998291015625,-0.01806640625,2.29644775390625,-0.8697509765625,0.4730224609375
0.007604550999985804,-0.0078125,0.99853515625,-0.01806640625,2.28118896484375,-0.8697509765625,0.48828125
0.0076560389999258405,-0.0078125,0.998046875,-0.018798828125,2.28118896484375,-0.8544921875,0.48828125
0.007707526999979564,-0.008544921875,0.998046875,-0.017578125,2.29644775390625,-0.8392333984375,0.48065185546875
0.0077590149999196,-0.008056640625,0.998046875,-0.01806640625,2.3040771484375,-0.8544921875,0.48065185546875
0.007810502999973323,-0.008056640625,0.997802734375,-0.017578125,2.288818359375,-0.86212158203125,0.48065185546875
0.00786199099991336,-0.008544921875,0.997802734375,-0.017822265625,2.288818359375,-0.8697509765625,0.45013427734375
0.007913478999967083,-0.00830078125,0.998046875,-0.018798828125,2.29644775390625,-0.86212158203125,0.457763671875
0.00796496699990712,-0.00830078125,0.99853515625,-0.01806640625,2.29644775390625,-0.86212158203125,0.48065185546875
0.008016454999960843,-0.008544921875,0.99853515625,-0.01806640625,2.28118896484375,-0.8392333984375,0.48828125
0.008067942999900879,-0.0078125,0.998291015625,-0.018798828125,2.288818359375,-0.86212158203125,0.49591064453125
0.008119430999954602,-0.00830078125,0.998291015625,-0.017822265625,2.29644775390625,-0.84686279296875,0.4730224609375
0.008170918999894639,-0.008056640625,0.998046875,-0.017822265625,2.29644775390625,-0.87738037109375,0.4730224609375
0.008222406999948362,-0.007568359375,0.998291015625,-0.018310546875,2.288818359375,-0.8697509765625,0.49591064453125
0.008273894999888398,-0.0087890625,0.998046875,-0.018798828125,2.29644775390625,-0.84686279296875,0.518798828125
0.008325382999942121,-0.00830078125,0.997802734375,-0.0185546875,2.288818359375,-0.83160400390625,0.49591064453125
0.008376870999882158,-0.00830078125,0.99853515625,-0.01806640625,2.28118896484375,-0.84686279296875,0.51116943359375
0.008428358999935881,-0.0078125,0.99853515625,-0.018310546875,2.31170654296875,-0.86212158203125,0.49591064453125
0.008479846999875917,-0.0087890625,0.997802734375,-0.01806640625,2.3040771484375,-0.86212158203125,0.49591064453125
0.00853133499992964,-0.00830078125,0.99755859375,-0.017578125,2.3040771484375,-0.86212158203125,0.4730224609375
0.008582822999869677,-0.008056640625,0.99755859375,-0.017333984375,2.3040771484375,-0.87738037109375,0.48828125
0.0086343109999234,-0.0087890625,0.99853515625,-0.0185546875,2.32696533203125,-0.86212158203125,0.48065185546875
0.00868614077262464,-0.008544921875,0.99853515625,-0.01806640625,2.288818359375,-0.8544921875,0.5035400390625
0.00873797054532588,-0.008544921875,0.99853515625,-0.018310546875,2.3193359375,-0.87738037109375,0.4730224609375
0.008789800318140806,-0.008056640625,0.998291015625,-0.01806640625,2.32696533203125,-0.86212158203125,0.48065185546875
0.008841630090842045,-0.008544921875,0.99853515625,-0.017822265625,2.3040771484375,-0.86212158203125,0.51116943359375
0.008893459863543285,-0.008056640625,0.998779296875,-0.017822265625,2.29644775390625,-0.8697509765625,0.5035400390625
0.008945289636244524,-0.0087890625,0.99853515625,-0.017578125,2.29644775390625,-0.86212158203125,0.4730224609375
0.00899711940905945,-0.008056640625,0.998291015625,-0.01708984375,2.288818359375,-0.8697509765625,0.49591064453125
0.00904894918176069,-0.00830078125,0.997802734375,-0.017822265625,2.288818359375,-0.86212158203125,0.46539306640625
0.00910077895446193,-0.00830078125,0.997802734375,-0.017822265625,2.288818359375,-0.86212158203125,0.46539306640625
0.00915260872716317,-0.00830078125,0.998291015625,-0.01806640625,2.2735595703125,-0.8544921875,0.48065185546875
0.009204438499978096,-0.008544921875,0.998046875,-0.01806640625,2.288818359375,-0.86212158203125,0.48828125
0.009256268272679335,-0.008056640625,0.998291015625,-0.018310546875,2.2735595703125,-0.87738037109375,0.4730224609375
0.009308098045380575,-0.0078125,0.99853515625,-0.0185546875,2.28118896484375,-0.86212158203125,0.5035400390625
0.009359927818081815,-0.00830078125,0.997802734375,-0.017822265625,2.29644775390625,-0.8544921875,0.48828125
0.009411757590783054,-0.008056640625,0.997802734375,-0.017822265625,2.3040771484375,-0.87738037109375,0.4730224609375
0.00946358736359798,-0.00830078125,0.998046875,-0.01806640625,2.3193359375,-0.87738037109375,0.51116943359375
0.00951541713629922,-0.00830078125,0.997802734375,-0.01806640625,2.3193359375,-0.84686279296875,0.5035400390625
0.00956724690900046,-0.00830078125,0.997802734375,-0.018310546875,2.2735595703125,-0.86212158203125,0.48065185546875
0.0096190766817017,-0.00830078125,0.99853515625,-0.018310546875,2.29644775390625,-0.87738037109375,0.5035400390625
0.009670906454516626,-0.00830078125,0.99853515625,-0.017822265625,2.29644775390625,-0.8544921875,0.5035400390625
0.009722736227217865,-0.00830078125,0.998046875,-0.017578125,2.3193359375,-0.8544921875,0.48065185546875
0.009774565999919105,-0.008056640625,0.998046875,-0.018310546875,2.3193359375,-0.86212158203125,0.457763671875
0.0098234396521093,-0.0078125,0.99853515625,-0.01806640625,2.3040771484375,-0.8544921875,0.457763671875
0.009872313304299496,-0.00830078125,0.998779296875,-0.01806640625,2.32696533203125,-0.8697509765625,0.49591064453125
0.009921186956489692,-0.008056640625,0.998046875,-0.017822265625,2.2735595703125,-0.86212158203125,0.48065185546875
0.0099700606085662,-0.0078125,0.998046875,-0.018310546875,2.28118896484375,-0.86212158203125,0.46539306640625
0.010018934260756396,-0.00830078125,0.998046875,-0.01806640625,2.31170654296875,-0.8392333984375,0.49591064453125
0.010067807912946591,-0.009033203125,0.997802734375,-0.018310546875,2.2735595703125,-0.86212158203125,0.46539306640625
0.010116681565136787,-0.008056640625,0.997802734375,-0.018798828125,2.29644775390625,-0.84686279296875,0.46539306640625
0.010165555217326983,-0.00830078125,0.998046875,-0.018310546875,2.28118896484375,-0.8544921875,0.48065185546875
0.010214428869517178,-0.008056640625,0.99853515625,-0.018310546875,2.3040771484375,-0.86212158203125,0.48828125
0.010263302521707374,-0.0078125,0.998291015625,-0.017578125,2.28118896484375,-0.8544921875,0.49591064453125
0.01031217617389757,-0.008056640625,0.998046875,-0.017333984375,2.2735595703125,-0.8544921875,0.48065185546875
0.010361049825974078,-0.008544921875,0.99853515625,-0.01806640625,2.288818359375,-0.8392333984375,0.46539306640625
0.010409923478164274,-0.008056640625,0.998046875,-0.018310546875,2.3040771484375,-0.87738037109375,0.46539306640625
0.010458797130354469,-0.008056640625,0.99755859375,-0.01806640625,2.3040771484375,-0.84686279296875,0.457763671875
0.010507670782544665,-0.008056640625,0.997802734375,-0.017578125,2.28118896484375,-0.84686279296875,0.46539306640625
0.01055654443473486,-0.007568359375,0.99853515625,-0.01806640625,2.2735595703125,-0.87738037109375,0.48065185546875
0.010605418086925056,-0.008056640625,0.99853515625,-0.0185546875,2.288818359375,-0.86212158203125,0.46539306640625
0.010654291739115251,-0.00830078125,0.998046875,-0.018798828125,2.288818359375,-0.8697509765625,0.4730224609375
0.010703165391305447,-0.008544921875,0.998046875,-0.0185546875,2.2735595703125,-0.84686279296875,0.48065185546875
0.010752039043381956,-0.008056640625,0.99853515625,-0.018310546875,2.2735595703125,-0.8544921875,0.5035400390625
0.010800912695572151,-0.0087890625,0.998046875,-0.018310546875,2.288818359375,-0.8544921875,0.48828125
0.010849786347762347,-0.008544921875,0.99755859375,-0.01806640625,2.28118896484375,-0.86212158203125,0.49591064453125
0.010898659999952542,-0.007568359375,0.997802734375,-0.017578125,2.26593017578125,-0.8697509765625,0.4730224609375
0.010947194130380922,-0.0078125,0.99853515625,-0.017578125,2.3040771484375,-0.87738037109375,0.457763671875
0.010995728260809301,-0.008056640625,0.998779296875,-0.017822265625,2.288818359375,-0.8544921875,0.49591064453125
0.01104426239123768,-0.008544921875,0.99853515625,-0.018310546875,2.28118896484375,-0.885009765625,0.48828125
0.01109279652166606,-0.0087890625,0.99853515625,-0.0185546875,2.28118896484375,-0.8697509765625,0.48065185546875
0.011141330652094439,-0.00830078125,0.998046875,-0.017333984375,2.3193359375,-0.885009765625,0.46539306640625
0.011189864782522818,-0.00830078125,0.998291015625,-0.017822265625,2.2735595703125,-0.8392333984375,0.48065185546875
0.011238398912951197,-0.0078125,0.998291015625,-0.017578125,2.29644775390625,-0.8392333984375,0.49591064453125
0.011286933043379577,-0.008544921875,0.998779296875,-0.018310546875,2.3193359375,-0.8544921875,0.5035400390625
0.011335467173807956,-0.008056640625,0.99853515625,-0.01806640625,2.3040771484375,-0.8697509765625,0.5035400390625
0.011384001304236335,-0.0078125,0.99853515625,-0.01806640625,2.288818359375,-0.8544921875,0.45013427734375
0.011432535434664715,-0.008544921875,0.997802734375,-0.017822265625,2.29644775390625,-0.84686279296875,0.4730224609375
0.01148106956520678,-0.008056640625,0.997802734375,-0.017578125,2.3040771484375,-0.86212158203125,0.48065185546875
0.01152960369563516,-0.00830078125,0.998291015625,-0.01806640625,2.29644775390625,-0.823974609375,0.4730224609375
0.01157813782606354,-0.00830078125,0.998779296875,-0.017822265625,2.288818359375,-0.84686279296875,0.457763671875
0.011626671956491919,-0.009033203125,0.998291015625,-0.01806640625,2.26593017578125,-0.8544921875,0.46539306640625
0.011675206086920298,-0.007568359375,0.998046875,-0.01904296875,2.28118896484375,-0.8392333984375,0.4730224609375
0.011723740217348677,-0.0078125,0.99853515625,-0.01904296875,2.25830078125,-0.8392333984375,0.4730224609375
0.011772274347777056,-0.008544921875,0.997802734375,-0.018310546875,2.28118896484375,-0.8544921875,0.48065185546875
0.011820808478205436,-0.00830078125,0.997802734375,-0.018798828125,2.28118896484375,-0.86212158203125,0.518798828125
0.011869342608633815,-0.0078125,0.998291015625,-0.01806640625,2.288818359375,-0.8697509765625,0.46539306640625
0.011917876739062194,-0.008056640625,0.99853515625,-0.017578125,2.29644775390625,-0.8697509765625,0.4730224609375
0.011966410869490574,-0.00830078125,0.998779296875,-0.017822265625,2.29644775390625,-0.86212158203125,0.457763671875
0.012014944999918953,-0.00830078125,0.99853515625,-0.017578125,2.2735595703125,-0.8697509765625,0.4425048828125
0.012065707090869182,-0.00830078125,0.997802734375,-0.01806640625,2.28118896484375,-0.86212158203125,0.45013427734375
0.012116469181705725,-0.008544921875,0.99755859375,-0.01806640625,2.29644775390625,-0.86212158203125,0.457763671875
0.012167231272655954,-0.008544921875,0.99853515625,-0.018310546875,2.2735595703125,-0.8544921875,0.4730224609375
0.012217993363606183,-0.00830078125,0.997802734375,-0.017578125,2.3040771484375,-0.83160400390625,0.5035400390625
0.012268755454442726,-0.008056640625,0.998046875,-0.01806640625,2.2735595703125,-0.8392333984375,0.457763671875
0.012319517545392955,-0.008544921875,0.99853515625,-0.01806640625,2.3193359375,-0.8544921875,0.4730224609375
0.012370279636229498,-0.00830078125,0.998291015625,-0.01806640625,2.3040771484375,-0.84686279296875,0.4730224609375
0.012421041727179727,-0.008056640625,0.997802734375,-0.01904296875,2.3040771484375,-0.86212158203125,0.49591064453125
0.012471803818129956,-0.00830078125,0.998046875,-0.018798828125,2.29644775390625,-0.8544921875,0.5035400390625
0.012522565908966499,-0.00830078125,0.99755859375,-0.0185546875,2.288818359375,-0.84686279296875,0.48065185546875
0.012573327999916728,-0.0078125,0.998291015625,-0.018310546875,2.31170654296875,-0.86212158203125,0.48828125
0.012624090090866957,-0.0078125,0.99853515625,-0.017822265625,2.26593017578125,-0.86212158203125,0.49591064453125
0.0126748521817035,-0.009033203125,0.998046875,-0.017578125,2.26593017578125,-0.86212158203125,0.48828125
0.012725614272653729,-0.0078125,0.998291015625,-0.017578125,2.29644775390625,-0.8392333984375,0.48065185546875
0.012776376363603958,-0.008056640625,0.998046875,-0.0185546875,2.288818359375,-0.86212158203125,0.48065185546875
0.012827138454440501,-0.00830078125,0.998046875,-0.018798828125,2.25830078125,-0.84686279296875,0.457763671875
0.01287790054539073,-0.008056640625,0.9990234375,-0.017822265625,2.3040771484375,-0.86212158203125,0.49591064453125
0.012928662636227273,-0.008056640625,0.99853515625,-0.017822265625,2.29644775390625,-0.84686279296875,0.48065185546875
0.012979424727177502,-0.007568359375,0.997802734375,-0.017822265625,2.3040771484375,-0.8544921875,0.48065185546875
0.013030186818127731,-0.0078125,0.997802734375,-0.018310546875,2.2735595703125,-0.86212158203125,0.52642822265625
0.013080948908964274,-0.008056640625,0.998046875,-0.01806640625,2.2735595703125,-0.86212158203125,0.5035400390625
0.013131710999914503,-0.0078125,0.998291015625,-0.018798828125,2.288818359375,-0.8697509765625,0.48065185546875
0.013180377347794092,-0.00830078125,0.998291015625,-0.018798828125,2.29644775390625,-0.8697509765625,0.4730224609375
0.013229043695559994,-0.00830078125,0.998291015625,-0.017333984375,2.28118896484375,-0.86212158203125,0.48065185546875
0.013277710043439583,-0.008544921875,0.997802734375,-0.018310546875,2.28118896484375,-0.8697509765625,0.51116943359375
0.013326376391205486,-0.008544921875,0.998046875,-0.01806640625,2.3040771484375,-0.8544921875,0.49591064453125
0.013375042739085075,-0.008056640625,0.99853515625,-0.017822265625,2.3193359375,-0.86212158203125,0.49591064453125
0.013423709086850977,-0.008056640625,0.99853515625,-0.01806640625,2.29644775390625,-0.8544921875,0.48065185546875
0.013472375434730566,-0.008056640625,0.998779296875,-0.018310546875,2.29644775390625,-0.86212158203125,0.48065185546875
0.013521041782610155,-0.0078125,0.9990234375,-0.0185546875,2.288818359375,-0.8697509765625,0.48828125
0.013569708130376057,-0.00830078125,0.998046875,-0.017578125,2.28118896484375,-0.86212158203125,0.49591064453125
0.013618374478255646,-0.00830078125,0.998046875,-0.01806640625,2.3040771484375,-0.86212158203125,0.4730224609375
0.013667040826021548,-0.008544921875,0.997802734375,-0.01806640625,2.3193359375,-0.86212158203125,0.49591064453125
0.013715707173901137,-0.0087890625,0.998046875,-0.018310546875,2.26593017578125,-0.8697509765625,0.4730224609375
0.01376437352166704,-0.00830078125,0.998291015625,-0.018798828125,2.2735595703125,-0.885009765625,0.4730224609375
0.013813039869546628,-0.00830078125,0.998291015625,-0.017822265625,2.28118896484375,-0.86212158203125,0.48065185546875
0.01386170621731253,-0.00830078125,0.99853515625,-0.01806640625,2.3193359375,-0.87738037109375,0.4730224609375
0.01391037256519212,-0.008544921875,0.99853515625,-0.017822265625,2.28118896484375,-0.885009765625,0.48828125
0.013959038913071709,-0.0087890625,0.99755859375,-0.01806640625,2.3040771484375,-0.86212158203125,0.4730224609375
0.01400770526083761,-0.0078125,0.99755859375,-0.0185546875,2.288818359375,-0.86212158203125,0.45013427734375
0.0140563716087172,-0.00830078125,0.998779296875,-0.0185546875,2.288818359375,-0.8544921875,0.4730224609375
0.014105037956483102,-0.0078125,0.99853515625,-0.0185546875,2.28118896484375,-0.84686279296875,0.51116943359375
0.014153704304362691,-0.00830078125,0.998046875,-0.017822265625,2.28118896484375,-0.8544921875,0.48828125
0.014202370652128593,-0.00830078125,0.99755859375,-0.017822265625,2.29644775390625,-0.8544921875,0.49591064453125
0.014251037000008182,-0.00830078125,0.998046875,-0.018310546875,2.3040771484375,-0.86212158203125,0.46539306640625
0.01429959343477094,-0.0078125,0.997802734375,-0.01806640625,2.288818359375,-0.8697509765625,0.46539306640625
0.0143481498695337,-0.008056640625,0.99853515625,-0.018310546875,2.288818359375,-0.8544921875,0.4730224609375
0.014396706304410145,-0.008544921875,0.99853515625,-0.018798828125,2.3040771484375,-0.86212158203125,0.48065185546875
0.014445262739172904,-0.0078125,0.998291015625,-0.019287109375,2.31170654296875,-0.8544921875,0.5035400390625
0.014493819173935663,-0.00830078125,0.997802734375,-0.018310546875,2.25830078125,-0.8392333984375,0.48065185546875
0.014542375608698421,-0.0078125,0.99853515625,-0.017578125,2.29644775390625,-0.83160400390625,0.457763671875
0.01459093204346118,-0.008544921875,0.998291015625,-0.018310546875,2.29644775390625,-0.8392333984375,0.48065185546875
0.014639488478223939,-0.008544921875,0.998291015625,-0.01806640625,2.288818359375,-0.86212158203125,0.51116943359375
0.014688044913100384,-0.008544921875,0.998046875,-0.018798828125,2.2735595703125,-0.86212158203125,0.46539306640625
0.014736601347863143,-0.008544921875,0.99853515625,-0.0185546875,2.28118896484375,-0.83160400390625,0.48828125
0.014785157782625902,-0.008544921875,0.99853515625,-0.01806640625,2.25830078125,-0.8392333984375,0.49591064453125
0.01483371421738866,-0.0087890625,0.998291015625,-0.01806640625,2.288818359375,-0.84686279296875,0.4730224609375
0.01488227065215142,-0.0078125,0.998046875,-0.018310546875,2.29644775390625,-0.86212158203125,0.48828125
0.014930827086914178,-0.0078125,0.998046875,-0.018798828125,2.288818359375,-0.8544921875,0.4730224609375
0.014979383521790623,-0.008544921875,0.99853515625,-0.0185546875,2.3040771484375,-0.8392333984375,0.48828125
0.015027939956553382,-0.0078125,0.998779296875,-0.01806640625,2.288818359375,-0.86212158203125,0.48065185546875
0.015076496391316141,-0.007568359375,0.99755859375,-0.017822265625,2.29644775390625,-0.87738037109375,0.518798828125
0.0151250528260789,-0.00830078125,0.998046875,-0.01806640625,2.28118896484375,-0.8697509765625,0.49591064453125
0.015173609260841658,-0.008544921875,0.998046875,-0.018310546875,2.28118896484375,-0.84686279296875,0.48065185546875
0.015222165695604417,-0.008544921875,0.998291015625,-0.018310546875,2.29644775390625,-0.86212158203125,0.4730224609375
0.015270722130480863,-0.009033203125,0.9990234375,-0.018310546875,2.3040771484375,-0.8544921875,0.46539306640625
0.015319278565243621,-0.008056640625,0.998291015625,-0.018310546875,2.29644775390625,-0.86212158203125,0.45013427734375
0.01536783500000638,-0.007568359375,0.997802734375,-0.01806640625,2.2735595703125,-0.86212158203125,0.457763671875
0.01541861600003358,-0.008056640625,0.997802734375,-0.018310546875,2.2735595703125,-0.8544921875,0.5035400390625
0.015469396999947094,-0.009033203125,0.998291015625,-0.017333984375,2.28118896484375,-0.86212158203125,0.49591064453125
0.015520177999974294,-0.009033203125,0.99853515625,-0.017578125,2.28118896484375,-0.84686279296875,0.48065185546875
0.015570959000001494,-0.008544921875,0.99853515625,-0.0185546875,2.288818359375,-0.8697509765625,0.457763671875
0.015621740000028694,-0.00830078125,0.99853515625,-0.01806640625,2.28118896484375,-0.8697509765625,0.48828125
0.015672520999942208,-0.007568359375,0.997802734375,-0.01806640625,2.2735595703125,-0.8544921875,0.5035400390625
0.015723301999969408,-0.008544921875,0.997802734375,-0.0185546875,2.29644775390625,-0.84686279296875,0.48065185546875
0.015774082999996608,-0.00830078125,0.997802734375,-0.017578125,2.32696533203125,-0.83160400390625,0.45013427734375
0.01582486400002381,-0.00830078125,0.99853515625,-0.017822265625,2.29644775390625,-0.86212158203125,0.4730224609375
0.01587564499993732,-0.00830078125,0.998779296875,-0.018798828125,2.3040771484375,-0.885009765625,0.4730224609375
0.015926425999964522,-0.0087890625,0.998779296875,-0.0185546875,2.3040771484375,-0.8697509765625,0.457763671875
0.015977206999991722,-0.00830078125,0.997802734375,-0.0185546875,2.288818359375,-0.86212158203125,0.4730224609375
0.016027987999905235,-0.008056640625,0.998046875,-0.017578125,2.3040771484375,-0.86212158203125,0.4730224609375
0.016078768999932436,-0.00830078125,0.9990234375,-0.0185546875,2.31170654296875,-0.8392333984375,0.49591064453125
0.016129549999959636,-0.00830078125,0.99853515625,-0.018798828125,2.3040771484375,-0.86212158203125,0.51116943359375
0.016180330999986836,-0.00732421875,0.998046875,-0.017822265625,2.2735595703125,-0.86212158203125,0.4730224609375
0.01623111199990035,-0.008056640625,0.998046875,-0.017578125,2.288818359375,-0.86212158203125,0.48065185546875
0.01628189299992755,-0.0078125,0.998291015625,-0.018310546875,2.28118896484375,-0.8697509765625,0.48065185546875
0.01633267399995475,-0.008056640625,0.99853515625,-0.017333984375,2.288818359375,-0.87738037109375,0.45013427734375
0.01638345499998195,-0.00830078125,0.998291015625,-0.017822265625,2.26593017578125,-0.86212158203125,0.46539306640625
0.016434235999895463,-0.007568359375,0.998291015625,-0.018310546875,2.26593017578125,-0.8392333984375,0.4730224609375
0.016485016999922664,-0.0087890625,0.99853515625,-0.018798828125,2.29644775390625,-0.8544921875,0.49591064453125
0.01653377239119891,-0.008544921875,0.998779296875,-0.0185546875,2.31170654296875,-0.86212158203125,0.46539306640625
0.01658252778258884,-0.0078125,0.998779296875,-0.0185546875,2.29644775390625,-0.8697509765625,0.48065185546875
0.016631283173865086,-0.008544921875,0.998046875,-0.018798828125,2.3193359375,-0.8544921875,0.48828125
0.01668003856514133,-0.00830078125,0.998291015625,-0.018798828125,2.288818359375,-0.8544921875,0.48828125
0.016728793956417576,-0.008544921875,0.998779296875,-0.018310546875,2.288818359375,-0.8697509765625,0.49591064453125
0.016777549347807508,-0.0087890625,0.99853515625,-0.018310546875,2.28118896484375,-0.8544921875,0.5035400390625
0.016826304739083753,-0.00830078125,0.997802734375,-0.01806640625,2.28118896484375,-0.86212158203125,0.46539306640625
0.016875060130359998,-0.007568359375,0.998046875,-0.01806640625,2.3040771484375,-0.8544921875,0.48065185546875
0.016923815521636243,-0.008056640625,0.998046875,-0.01806640625,2.3193359375,-0.8697509765625,0.4730224609375
0.016972570913026175,-0.00830078125,0.997802734375,-0.0185546875,2.28118896484375,-0.8544921875,0.48065185546875
0.01702132630430242,-0.0078125,0.99853515625,-0.018310546875,2.29644775390625,-0.83160400390625,0.48828125
0.017070081695578665,-0.00830078125,0.9990234375,-0.01806640625,2.3040771484375,-0.8544921875,0.48828125
0.01711883708685491,-0.00830078125,0.998046875,-0.017822265625,2.29644775390625,-0.86212158203125,0.48828125
0.017167592478244842,-0.0087890625,0.998291015625,-0.018310546875,2.28118896484375,-0.86212158203125,0.457763671875
0.017216347869521087,-0.0087890625,0.99755859375,-0.018310546875,2.2735595703125,-0.8544921875,0.457763671875
0.017265103260797332,-0.00830078125,0.99853515625,-0.017578125,2.2735595703125,-0.86212158203125,0.4730224609375
0.017313858652073577,-0.00830078125,0.9990234375,-0.01806640625,2.25067138671875,-0.84686279296875,0.48065185546875
0.01736261404346351,-0.008544921875,0.998291015625,-0.01806640625,2.28118896484375,-0.8544921875,0.48065185546875
0.017411369434739754,-0.00830078125,0.9990234375,-0.018310546875,2.288818359375,-0.8392333984375,0.48065185546875
0.017460124826016,-0.0087890625,0.998046875,-0.018310546875,2.3193359375,-0.8544921875,0.49591064453125
0.017508880217292244,-0.0078125,0.998046875,-0.01806640625,2.2735595703125,-0.86212158203125,0.48828125
0.017557635608682176,-0.007568359375,0.997802734375,-0.018310546875,2.28118896484375,-0.8544921875,0.457763671875
0.01760639099995842,-0.007568359375,0.998291015625,-0.0185546875,2.288818359375,-0.86212158203125,0.4730224609375
0.017657542909091717,-0.008544921875,0.99853515625,-0.018310546875,2.28118896484375,-0.8544921875,0.4730224609375
0.017708694818111326,-0.008544921875,0.99853515625,-0.018310546875,2.288818359375,-0.84686279296875,0.4730224609375
0.01775984672724462,-0.00830078125,0.99853515625,-0.018310546875,2.26593017578125,-0.8544921875,0.49591064453125
0.017810998636377917,-0.00830078125,0.998779296875,-0.017578125,2.29644775390625,-0.8544921875,0.48065185546875
0.017862150545397526,-0.0087890625,0.998779296875,-0.017822265625,2.288818359375,-0.8697509765625,0.4730224609375
0.01791330245453082,-0.0087890625,0.998291015625,-0.0185546875,2.3040771484375,-0.8697509765625,0.48065185546875
0.01796445436355043,-0.008544921875,0.998046875,-0.018310546875,2.288818359375,-0.8697509765625,0.49591064453125
0.018015606272683726,-0.00830078125,0.99853515625,-0.01806640625,2.29644775390625,-0.86212158203125,0.4730224609375
0.018066758181817022,-0.008544921875,0.99853515625,-0.017333984375,2.31170654296875,-0.8544921875,0.46539306640625
0.01811791009083663,-0.00830078125,0.998046875,-0.017822265625,2.288818359375,-0.8697509765625,0.48828125
0.018169061999969927,-0.007568359375,0.998779296875,-0.01806640625,2.3040771484375,-0.86212158203125,0.49591064453125
0.018220213909103222,-0.00830078125,0.998046875,-0.0185546875,2.28118896484375,-0.86212158203125,0.5035400390625
0.01827136581812283,-0.0078125,0.998291015625,-0.018310546875,2.29644775390625,-0.8697509765625,0.48065185546875
0.018322517727256127,-0.0078125,0.998291015625,-0.01806640625,2.3040771484375,-0.86212158203125,0.4730224609375
0.018373669636389423,-0.00830078125,0.998291015625,-0.017822265625,2.3193359375,-0.86212158203125,0.48065185546875
0.01842482154540903,-0.008056640625,0.99853515625,-0.01806640625,2.29644775390625,-0.8544921875,0.48828125
0.018475973454542327,-0.00732421875,0.998046875,-0.018310546875,2.288818359375,-0.8697509765625,0.49591064453125
0.018527125363561936,-0.00830078125,0.998291015625,-0.018310546875,2.2735595703125,-0.86212158203125,0.51116943359375
0.01857827727269523,-0.008544921875,0.99853515625,-0.018798828125,2.28118896484375,-0.8697509765625,0.48065185546875
0.018629429181828527,-0.008056640625,0.998046875,-0.018798828125,2.288818359375,-0.8544921875,0.51116943359375
0.018680581090848136,-0.008544921875,0.998291015625,-0.018798828125,2.23541259765625,-0.84686279296875,0.48828125
0.018731732999981432,-0.00830078125,0.99853515625,-0.017822265625,2.29644775390625,-0.8697509765625,0.49591064453125
0.018780683173872603,-0.007568359375,0.997802734375,-0.0185546875,2.288818359375,-0.8544921875,0.48065185546875
0.018829633347763775,-0.008544921875,0.998046875,-0.0185546875,2.2735595703125,-0.8392333984375,0.5035400390625
0.018878583521768633,-0.0078125,0.99853515625,-0.0185546875,2.26593017578125,-0.87738037109375,0.4730224609375
0.018927533695659804,-0.007568359375,0.99853515625,-0.017822265625,2.29644775390625,-0.86212158203125,0.48065185546875
0.018976483869550975,-0.0078125,0.998291015625,-0.017822265625,2.29644775390625,-0.8697509765625,0.48065185546875
0.019025434043442147,-0.008056640625,0.998779296875,-0.01806640625,2.2735595703125,-0.87738037109375,0.49591064453125
0.019074384217333318,-0.008056640625,0.99853515625,-0.017578125,2.288818359375,-0.8544921875,0.49591064453125
0.01912333439122449,-0.00830078125,0.998291015625,-0.017822265625,2.288818359375,-0.86212158203125,0.4730224609375
0.019172284565229347,-0.008056640625,0.99853515625,-0.018310546875,2.28118896484375,-0.8697509765625,0.4730224609375
0.01922123473912052,-0.008544921875,0.99853515625,-0.018310546875,2.31170654296875,-0.86212158203125,0.49591064453125
0.01927018491301169,-0.008056640625,0.998291015625,-0.017333984375,2.28118896484375,-0.86212158203125,0.46539306640625
0.01931913508690286,-0.007568359375,0.997802734375,-0.017822265625,2.28118896484375,-0.86212158203125,0.5035400390625
0.019368085260794032,-0.008056640625,0.997802734375,-0.018310546875,2.2735595703125,-0.86212158203125,0.49591064453125
0.019417035434685204,-0.00732421875,0.99853515625,-0.019287109375,2.29644775390625,-0.8697509765625,0.48065185546875
0.019465985608690062,-0.008056640625,0.99853515625,-0.01806640625,2.29644775390625,-0.84686279296875,0.46539306640625
0.019514935782581233,-0.00830078125,0.998779296875,-0.018310546875,2.2735595703125,-0.8697509765625,0.45013427734375
0.019563885956472404,-0.00830078125,0.998046875,-0.01806640625,2.288818359375,-0.8697509765625,0.48065185546875
0.019612836130363576,-0.007568359375,0.997802734375,-0.01806640625,2.29644775390625,-0.8697509765625,0.5035400390625
0.019661786304254747,-0.0087890625,0.998046875,-0.018310546875,2.28118896484375,-0.86212158203125,0.46539306640625
0.019710736478145918,-0.00830078125,0.997802734375,-0.017822265625,2.29644775390625,-0.8392333984375,0.4730224609375
0.019759686652150776,-0.0078125,0.997802734375,-0.018310546875,2.29644775390625,-0.8697509765625,0.49591064453125
0.019808636826041948,-0.008544921875,0.998046875,-0.018310546875,2.2735595703125,-0.8544921875,0.4730224609375
0.01985758699993312,-0.008056640625,0.998291015625,-0.017578125,2.32696533203125,-0.86212158203125,0.49591064453125
0.01990653717382429,-0.008056640625,0.998046875,-0.018310546875,2.32696533203125,-0.86212158203125,0.48828125
0.01995548734771546,-0.008544921875,0.99853515625,-0.01806640625,2.3345947265625,-0.86212158203125,0.48065185546875
0.02000443752172032,-0.0078125,0.998779296875,-0.0185546875,2.28118896484375,-0.86212158203125,0.48828125
0.02005338769561149,-0.00830078125,0.9990234375,-0.018310546875,2.25830078125,-0.8697509765625,0.4730224609375
0.020102337869502662,-0.0078125,0.99853515625,-0.018310546875,2.28118896484375,-0.8544921875,0.4730224609375
0.020151288043393834,-0.0087890625,0.998779296875,-0.018798828125,2.28118896484375,-0.87738037109375,0.48828125
0.02020023821739869,-0.008544921875,0.99853515625,-0.017578125,2.288818359375,-0.87738037109375,0.48828125
0.020249188391289863,-0.008544921875,0.998046875,-0.018310546875,2.288818359375,-0.8697509765625,0.51116943359375
0.020298138565181034,-0.0078125,0.99853515625,-0.017578125,2.2735595703125,-0.8544921875,0.48065185546875
0.020347088739072205,-0.0078125,0.998046875,-0.018310546875,2.2735595703125,-0.8697509765625,0.48828125
0.020396038912963377,-0.00830078125,0.998291015625,-0.018310546875,2.288818359375,-0.8544921875,0.4730224609375
0.020444989086968235,-0.008056640625,0.998291015625,-0.017578125,2.2735595703125,-0.83160400390625,0.48065185546875
0.020493939260859406,-0.008544921875,0.998046875,-0.01806640625,2.288818359375,-0.86212158203125,0.46539306640625
0.020542889434750577,-0.008544921875,0.998046875,-0.018310546875,2.3193359375,-0.87738037109375,0.48065185546875
0.02059183960864175,-0.00830078125,0.997802734375,-0.0185546875,2.3193359375,-0.84686279296875,0.48065185546875
0.02064078978253292,-0.00830078125,0.997802734375,-0.0185546875,2.29644775390625,-0.8544921875,0.48065185546875
0.020689739956537778,-0.00830078125,0.997802734375,-0.017822265625,2.28118896484375,-0.86212158203125,0.48828125
0.02073869013042895,-0.00830078125,0.997802734375,-0.01806640625,2.25067138671875,-0.8697509765625,0.49591064453125
0.02078764030432012,-0.00927734375,0.99853515625,-0.018310546875,2.29644775390625,-0.84686279296875,0.49591064453125
0.020836590478211292,-0.008056640625,0.99853515625,-0.01806640625,2.32696533203125,-0.86212158203125,0.48828125
0.02088554065221615,-0.008544921875,0.998046875,-0.017578125,2.288818359375,-0.89263916015625,0.49591064453125
0.02093449082610732,-0.0078125,0.99755859375,-0.017822265625,2.31170654296875,-0.86212158203125,0.51116943359375
0.020983440999998493,-0.0078125,0.997802734375,-0.01806640625,2.288818359375,-0.8697509765625,0.46539306640625
0.021034892545458206,-0.008544921875,0.998046875,-0.0185546875,2.2735595703125,-0.8392333984375,0.457763671875
0.02108634409091792,-0.00830078125,0.998779296875,-0.017822265625,2.3040771484375,-0.8544921875,0.457763671875
0.021137795636377632,-0.008056640625,0.998291015625,-0.01806640625,2.31170654296875,-0.87738037109375,0.4730224609375
0.021189247181837345,-0.00830078125,0.998046875,-0.018310546875,2.29644775390625,-0.8697509765625,0.4730224609375
0.021240698727297058,-0.008056640625,0.997802734375,-0.018310546875,2.288818359375,-0.86212158203125,0.48828125
0.02129215027275677,-0.008544921875,0.99755859375,-0.01806640625,2.29644775390625,-0.8697509765625,0.49591064453125
0.021343601818216484,-0.008544921875,0.998046875,-0.018798828125,2.288818359375,-0.8544921875,0.46539306640625
0.021395053363676197,-0.008544921875,0.99853515625,-0.018310546875,2.29644775390625,-0.86212158203125,0.48065185546875
0.02144650490913591,-0.0078125,0.998291015625,-0.01806640625,2.2735595703125,-0.885009765625,0.48065185546875
0.021497956454595624,-0.0078125,0.998046875,-0.017578125,2.3040771484375,-0.87738037109375,0.51116943359375
0.02154940799994165,-0.008544921875,0.997802734375,-0.017822265625,2.29644775390625,-0.8697509765625,0.46539306640625
0.021600859545401363,-0.0078125,0.997802734375,-0.0185546875,2.288818359375,-0.8544921875,0.46539306640625
0.021652311090861076,-0.008544921875,0.998046875,-0.018798828125,2.288818359375,-0.86212158203125,0.45013427734375
0.02170376263632079,-0.00830078125,0.997802734375,-0.01806640625,2.28118896484375,-0.86212158203125,0.4730224609375
0.021755214181780502,-0.00732421875,0.99853515625,-0.01806640625,2.25830078125,-0.8697509765625,0.457763671875
0.021806665727240215,-0.0078125,0.998046875,-0.017333984375,2.3040771484375,-0.87738037109375,0.48065185546875
0.02185811727269993,-0.008544921875,0.998046875,-0.017822265625,2.28118896484375,-0.8544921875,0.48828125
0.02190956881815964,-0.008544921875,0.9990234375,-0.018310546875,2.3040771484375,-0.86212158203125,0.4730224609375
0.021961020363619355,-0.0078125,0.9990234375,-0.017822265625,2.32696533203125,-0.8697509765625,0.4730224609375
0.022012471909079068,-0.00830078125,0.99853515625,-0.018798828125,2.28118896484375,-0.8544921875,0.45013427734375
0.02206392345453878,-0.008544921875,0.9990234375,-0.018310546875,2.29644775390625,-0.8392333984375,0.48065185546875
0.022115374999998494,-0.008544921875,0.998779296875,-0.019287109375,2.29644775390625,-0.8697509765625,0.48828125
0.022164376695627652,-0.008544921875,0.997802734375,-0.018310546875,2.29644775390625,-0.8697509765625,0.48065185546875
0.02221337839125681,-0.00830078125,0.99853515625,-0.017822265625,2.288818359375,-0.86212158203125,0.48828125
0.022262380086999656,-0.0078125,0.99853515625,-0.01806640625,2.2735595703125,-0.8697509765625,0.51116943359375
0.022311381782628814,-0.0078125,0.99853515625,-0.017822265625,2.2735595703125,-0.8392333984375,0.4730224609375
0.022360383478257972,-0.0078125,0.998291015625,-0.018310546875,2.28118896484375,-0.8544921875,0.46539306640625
0.02240938517388713,-0.009033203125,0.997802734375,-0.017822265625,2.2735595703125,-0.84686279296875,0.4730224609375
0.02245838686951629,-0.008544921875,0.997802734375,-0.017822265625,2.29644775390625,-0.8544921875,0.4425048828125
0.022507388565145448,-0.00830078125,0.998046875,-0.018310546875,2.28118896484375,-0.8697509765625,0.45013427734375
0.022556390260888293,-0.008544921875,0.99853515625,-0.018310546875,2.28118896484375,-0.86212158203125,0.49591064453125
0.02260539195651745,-0.008544921875,0.997802734375,-0.018310546875,2.288818359375,-0.8697509765625,0.49591064453125
0.02265439365214661,-0.008056640625,0.997802734375,-0.018310546875,2.28118896484375,-0.83160400390625,0.518798828125
0.022703395347775768,-0.0087890625,0.998046875,-0.017822265625,2.2430419921875,-0.86212158203125,0.48065185546875
0.022752397043404926,-0.00830078125,0.99853515625,-0.017578125,2.2735595703125,-0.86212158203125,0.49591064453125
0.022801398739034084,-0.00830078125,0.998291015625,-0.018310546875,2.28118896484375,-0.8697509765625,0.4730224609375
0.02285040043477693,-0.00830078125,0.99853515625,-0.018310546875,2.3193359375,-0.885009765625,0.48828125
0.022899402130406088,-0.008056640625,0.99853515625,-0.01806640625,2.288818359375,-0.87738037109375,0.4730224609375
0.022948403826035246,-0.00732421875,0.998046875,-0.018310546875,2.288818359375,-0.8697509765625,0.48065185546875
0.022997405521664405,-0.008544921875,0.998779296875,-0.017822265625,2.28118896484375,-0.84686279296875,0.46539306640625
0.023046407217293563,-0.00830078125,0.998291015625,-0.017822265625,2.288818359375,-0.8392333984375,0.45013427734375
0.02309540891292272,-0.00830078125,0.99853515625,-0.0185546875,2.28118896484375,-0.86212158203125,0.51116943359375
0.023144410608665567,-0.0078125,0.998291015625,-0.017822265625,2.288818359375,-0.86212158203125,0.49591064453125
0.023193412304294725,-0.007568359375,0.998291015625,-0.017333984375,2.29644775390625,-0.8544921875,0.48065185546875
0.023242413999923883,-0.0078125,0.99853515625,-0.017822265625,2.31170654296875,-0.8544921875,0.5035400390625
0.0232911318259994,-0.008056640625,0.997802734375,-0.01806640625,2.26593017578125,-0.86212158203125,0.49591064453125
0.023339849652074918,-0.00830078125,0.998046875,-0.018310546875,2.2735595703125,-0.86212158203125,0.48065185546875
0.023388567478150435,-0.008544921875,0.99853515625,-0.01806640625,2.288818359375,-0.8697509765625,0.457763671875
0.02343728530433964,-0.00830078125,0.998046875,-0.017822265625,2.2735595703125,-0.8544921875,0.45013427734375
0.023486003130415156,-0.00830078125,0.998291015625,-0.0185546875,2.3040771484375,-0.8544921875,0.48065185546875
0.023534720956490673,-0.0087890625,0.998779296875,-0.01806640625,2.29644775390625,-0.8544921875,0.48828125
0.02358343878256619,-0.00830078125,0.998046875,-0.0185546875,2.288818359375,-0.8544921875,0.51116943359375
0.023632156608641708,-0.008056640625,0.998046875,-0.018310546875,2.28118896484375,-0.87738037109375,0.5035400390625
0.023680874434717225,-0.0078125,0.998046875,-0.017822265625,2.288818359375,-0.8544921875,0.5035400390625
0.023729592260792742,-0.0078125,0.998046875,-0.018310546875,2.28118896484375,-0.8544921875,0.457763671875
0.02377831008686826,-0.008544921875,0.99853515625,-0.017333984375,2.29644775390625,-0.8697509765625,0.48828125
0.023827027913057464,-0.0087890625,0.99853515625,-0.018310546875,2.28118896484375,-0.8697509765625,0.4730224609375
0.02387574573913298,-0.0078125,0.998046875,-0.0185546875,2.29644775390625,-0.885009765625,0.4730224609375
0.023924463565208498,-0.008056640625,0.998046875,-0.01806640625,2.31170654296875,-0.8544921875,0.46539306640625
0.023973181391284015,-0.008056640625,0.99853515625,-0.01806640625,2.28118896484375,-0.8544921875,0.49591064453125
0.024021899217359532,-0.0078125,0.998291015625,-0.018310546875,2.2735595703125,-0.8392333984375,0.49591064453125
0.02407061704343505,-0.008544921875,0.99853515625,-0.018310546875,2.288818359375,-0.8544921875,0.49591064453125
0.024119334869510567,-0.00830078125,0.99853515625,-0.017822265625,2.3040771484375,-0.8544921875,0.457763671875
0.024168052695586084,-0.0078125,0.997314453125,-0.018310546875,2.3193359375,-0.8544921875,0.4730224609375
0.024216770521775288,-0.00830078125,0.99755859375,-0.018310546875,2.29644775390625,-0.8697509765625,0.48065185546875
0.024265488347850805,-0.008056640625,0.998046875,-0.017822265625,2.29644775390625,-0.83160400390625,0.48065185546875
0.024314206173926323,-0.0087890625,0.998046875,-0.018310546875,2.29644775390625,-0.8697509765625,0.48828125
0.02436292400000184,-0.0078125,0.99853515625,-0.017822265625,2.26593017578125,-0.8544921875,0.49591064453125
0.024414038090867507,-0.0078125,0.99755859375,-0.017822265625,2.3040771484375,-0.83160400390625,0.48065185546875
0.02446515218184686,-0.007568359375,0.998046875,-0.01806640625,2.31170654296875,-0.87738037109375,0.4730224609375
0.024516266272712528,-0.0087890625,0.997802734375,-0.018798828125,2.29644775390625,-0.8697509765625,0.48065185546875
0.024567380363578195,-0.00830078125,0.99853515625,-0.017822265625,2.3193359375,-0.8697509765625,0.48065185546875
0.02461849445455755,-0.008056640625,0.998291015625,-0.018310546875,2.2735595703125,-0.8544921875,0.49591064453125
0.024669608545423216,-0.00830078125,0.998046875,-0.018310546875,2.2735595703125,-0.8544921875,0.48065185546875
0.02472072263640257,-0.008056640625,0.998046875,-0.018310546875,2.3193359375,-0.86212158203125,0.4730224609375
0.024771836727268237,-0.008544921875,0.99853515625,-0.01806640625,2.288818359375,-0.8544921875,0.4730224609375
0.024822950818133904,-0.00830078125,0.99853515625,-0.018310546875,2.28118896484375,-0.87738037109375,0.46539306640625
0.024874064909113258,-0.008544921875,0.99853515625,-0.01806640625,2.3040771484375,-0.84686279296875,0.46539306640625
0.024925178999978925,-0.0078125,0.99853515625,-0.018310546875,2.3040771484375,-0.86212158203125,0.46539306640625
0.024976293090844592,-0.0087890625,0.997802734375,-0.017822265625,2.288818359375,-0.8697509765625,0.4730224609375
0.025027407181823946,-0.008544921875,0.99853515625,-0.018310546875,2.29644775390625,-0.8392333984375,0.48065185546875
0.025078521272689613,-0.008056640625,0.99853515625,-0.018310546875,2.3193359375,-0.823974609375,0.48065185546875
0.02512963536355528,-0.008544921875,0.998291015625,-0.01806640625,2.3040771484375,-0.84686279296875,0.48065185546875
0.025180749454534634,-0.00830078125,0.99853515625,-0.017822265625,2.288818359375,-0.8392333984375,0.4730224609375
0.0252318635454003,-0.0087890625,0.998779296875,-0.0185546875,2.29644775390625,-0.8697509765625,0.48065185546875
0.025282977636379655,-0.00830078125,0.99853515625,-0.0185546875,2.3040771484375,-0.86212158203125,0.51116943359375
0.025334091727245323,-0.008056640625,0.997802734375,-0.0185546875,2.3040771484375,-0.885009765625,0.49591064453125
0.02538520581811099,-0.009033203125,0.998291015625,-0.01806640625,2.288818359375,-0.8392333984375,0.48065185546875
0.025436319909090344,-0.008056640625,0.998291015625,-0.017822265625,2.3040771484375,-0.8697509765625,0.4730224609375
0.02548743399995601,-0.00830078125,0.997314453125,-0.01806640625,2.31170654296875,-0.86212158203125,0.5035400390625
0.02553625478253707,-0.0087890625,0.998046875,-0.017822265625,2.2735595703125,-0.8544921875,0.46539306640625
0.02558507556523182,-0.008056640625,0.998291015625,-0.018310546875,2.29644775390625,-0.823974609375,0.4730224609375
0.02563389634781288,-0.008056640625,0.998046875,-0.01806640625,2.31170654296875,-0.84686279296875,0.518798828125
0.02568271713039394,-0.007568359375,0.998291015625,-0.017822265625,2.29644775390625,-0.8544921875,0.5035400390625
0.025731537912975,-0.00830078125,0.998291015625,-0.017333984375,2.3040771484375,-0.86212158203125,0.48828125
0.025780358695669747,-0.00830078125,0.997802734375,-0.017578125,2.28118896484375,-0.86212158203125,0.51116943359375
0.025829179478250808,-0.008544921875,0.99755859375,-0.01806640625,2.28118896484375,-0.86212158203125,0.48065185546875
0.025878000260831868,-0.0078125,0.997802734375,-0.018310546875,2.26593017578125,-0.885009765625,0.4730224609375
0.02592682104341293,-0.00830078125,0.998291015625,-0.018310546875,2.28118896484375,-0.87738037109375,0.4730224609375
0.025975641826107676,-0.007568359375,0.998291015625,-0.01806640625,2.2735595703125,-0.8697509765625,0.457763671875
0.026024462608688737,-0.008056640625,0.99755859375,-0.017822265625,2.288818359375,-0.8544921875,0.5035400390625
0.026073283391269797,-0.00830078125,0.998046875,-0.017822265625,2.288818359375,-0.8544921875,0.48828125
0.026122104173850857,-0.008544921875,0.998046875,-0.017578125,2.2735595703125,-0.86212158203125,0.49591064453125
0.026170924956545605,-0.008544921875,0.997802734375,-0.017822265625,2.28118896484375,-0.86212158203125,0.4730224609375
0.026219745739126665,-0.008544921875,0.998291015625,-0.01806640625,2.2430419921875,-0.86212158203125,0.4730224609375
0.026268566521707726,-0.008056640625,0.9990234375,-0.017822265625,2.288818359375,-0.86212158203125,0.457763671875
0.026317387304288786,-0.0078125,0.99853515625,-0.01806640625,2.29644775390625,-0.87738037109375,0.4730224609375
0.026366208086983534,-0.007568359375,0.998046875,-0.018310546875,2.3345947265625,-0.8544921875,0.4730224609375
0.026415028869564594,-0.007568359375,0.998291015625,-0.017578125,2.2735595703125,-0.8392333984375,0.4730224609375
0.026463849652145655,-0.0078125,0.997802734375,-0.01806640625,2.2735595703125,-0.84686279296875,0.4730224609375
0.026512670434726715,-0.007568359375,0.99853515625,-0.0185546875,2.288818359375,-0.86212158203125,0.4730224609375
0.026561491217421462,-0.008056640625,0.998046875,-0.018310546875,2.28118896484375,-0.86212158203125,0.5035400390625
0.026610312000002523,-0.0078125,0.99853515625,-0.018310546875,2.28118896484375,-0.885009765625,0.48065185546875
0.02666143190913317,-0.0078125,0.997802734375,-0.0185546875,2.29644775390625,-0.84686279296875,0.457763671875
0.026712551818150132,-0.00830078125,0.99755859375,-0.018310546875,2.31170654296875,-0.8544921875,0.46539306640625
0.02676367172728078,-0.0078125,0.997314453125,-0.0185546875,2.28118896484375,-0.8697509765625,0.518798828125
0.026814791636411428,-0.0078125,0.998046875,-0.01806640625,2.2735595703125,-0.87738037109375,0.48065185546875
0.02686591154542839,-0.00830078125,0.998291015625,-0.0185546875,2.28118896484375,-0.86212158203125,0.46539306640625
0.026917031454559037,-0.008544921875,0.998291015625,-0.017822265625,2.288818359375,-0.84686279296875,0.4730224609375
0.026968151363576,-0.00830078125,0.998779296875,-0.018310546875,2.3040771484375,-0.8392333984375,0.5035400390625
0.027019271272706646,-0.008544921875,0.998046875,-0.017822265625,2.2735595703125,-0.86212158203125,0.48828125
0.027070391181837294,-0.00830078125,0.998779296875,-0.0185546875,2.28118896484375,-0.87738037109375,0.457763671875
0.027121511090854256,-0.008056640625,0.998046875,-0.017822265625,2.2735595703125,-0.84686279296875,0.48065185546875
0.027172630999984904,-0.00830078125,0.998046875,-0.018310546875,2.29644775390625,-0.8392333984375,0.48065185546875
0.02722375090911555,-0.008544921875,0.997802734375,-0.01806640625,2.2735595703125,-0.87738037109375,0.48065185546875
0.027274870818132513,-0.0078125,0.998291015625,-0.01806640625,2.3040771484375,-0.86212158203125,0.49591064453125
0.02732599072726316,-0.008056640625,0.99853515625,-0.0185546875,2.3040771484375,-0.8544921875,0.4730224609375
0.02737711063639381,-0.00830078125,0.998779296875,-0.018310546875,2.28118896484375,-0.86212158203125,0.49591064453125
0.02742823054541077,-0.008056640625,0.99853515625,-0.018310546875,2.26593017578125,-0.8544921875,0.48065185546875
0.027479350454541418,-0.0078125,0.997802734375,-0.018310546875,2.288818359375,-0.8392333984375,0.4730224609375
0.02753047036355838,-0.0078125,0.997802734375,-0.018310546875,2.288818359375,-0.87738037109375,0.51116943359375
0.027581590272689027,-0.0078125,0.99853515625,-0.017822265625,2.29644775390625,-0.8697509765625,0.5035400390625
0.027632710181819675,-0.00830078125,0.998046875,-0.018310546875,2.288818359375,-0.8544921875,0.52642822265625
0.027683830090836636,-0.00830078125,0.99853515625,-0.018310546875,2.288818359375,-0.8544921875,0.48828125
0.027734949999967284,-0.008056640625,0.997802734375,-0.01806640625,2.29644775390625,-0.86212158203125,0.49591064453125
0.02778384173905124,-0.00927734375,0.997802734375,-0.018310546875,2.28118896484375,-0.84686279296875,0.48065185546875
0.027832733478248883,-0.0087890625,0.99853515625,-0.018310546875,2.288818359375,-0.8544921875,0.46539306640625
0.02788162521733284,-0.0078125,0.998046875,-0.01806640625,2.288818359375,-0.87738037109375,0.457763671875
0.027930516956530482,-0.007568359375,0.9990234375,-0.0185546875,2.25830078125,-0.8544921875,0.48828125
0.02797940869561444,-0.007568359375,0.998046875,-0.017822265625,2.26593017578125,-0.8544921875,0.48065185546875
0.028028300434698394,-0.0078125,0.998291015625,-0.017822265625,2.31170654296875,-0.8544921875,0.4730224609375
0.028077192173896037,-0.0078125,0.998779296875,-0.018310546875,2.29644775390625,-0.8392333984375,0.4730224609375
0.028126083912979993,-0.00830078125,0.997802734375,-0.017822265625,2.288818359375,-0.83160400390625,0.48065185546875
0.028174975652177636,-0.00830078125,0.998046875,-0.017822265625,2.2735595703125,-0.8544921875,0.48828125
0.028223867391261592,-0.00830078125,0.997802734375,-0.017822265625,2.3040771484375,-0.89263916015625,0.4730224609375
0.02827275913034555,-0.009033203125,0.998291015625,-0.018310546875,2.28118896484375,-0.86212158203125,0.48065185546875
0.02832165086954319,-0.00830078125,0.997802734375,-0.018310546875,2.288818359375,-0.83160400390625,0.5035400390625
0.028370542608627147,-0.0078125,0.998046875,-0.0185546875,2.29644775390625,-0.84686279296875,0.51116943359375
0.028419434347711103,-0.00830078125,0.997802734375,-0.01806640625,2.31170654296875,-0.8544921875,0.48065185546875
0.028468326086908746,-0.007568359375,0.998291015625,-0.018310546875,2.3345947265625,-0.8697509765625,0.5035400390625
0.028517217825992702,-0.0078125,0.99853515625,-0.018798828125,2.32696533203125,-0.8392333984375,0.5035400390625
0.028566109565190345,-0.0078125,0.998046875,-0.017822265625,2.3040771484375,-0.8544921875,0.46539306640625
0.0286150013042743,-0.008056640625,0.99853515625,-0.01806640625,2.29644775390625,-0.8544921875,0.48065185546875
0.028663893043358257,-0.0087890625,0.998291015625,-0.017578125,2.3193359375,-0.8697509765625,0.457763671875
0.0287127847825559,-0.00830078125,0.998291015625,-0.018310546875,2.32696533203125,-0.8697509765625,0.46539306640625
0.028761676521639856,-0.0078125,0.998046875,-0.01806640625,2.3040771484375,-0.8697509765625,0.48065185546875
0.0288105682608375,-0.0078125,0.998779296875,-0.01806640625,2.3040771484375,-0.8392333984375,0.48065185546875
0.028859459999921455,-0.0087890625,0.998046875,-0.017822265625,2.288818359375,-0.8392333984375,0.46539306640625
0.0289075850869267,-0.009033203125,0.998779296875,-0.017822265625,2.288818359375,-0.86212158203125,0.46539306640625
0.02895571017381826,-0.0087890625,0.997802734375,-0.017578125,2.288818359375,-0.8544921875,0.4425048828125
0.029003835260823507,-0.008056640625,0.997802734375,-0.017822265625,2.288818359375,-0.8392333984375,0.4730224609375
0.029051960347715067,-0.008544921875,0.998291015625,-0.018310546875,2.29644775390625,-0.84686279296875,0.5035400390625
0.029100085434720313,-0.0087890625,0.998291015625,-0.01806640625,2.288818359375,-0.86212158203125,0.5035400390625
0.02914821052172556,-0.008056640625,0.997802734375,-0.01806640625,2.288818359375,-0.87738037109375,0.46539306640625
0.02919633560861712,-0.007568359375,0.998291015625,-0.017333984375,2.2735595703125,-0.89263916015625,0.4730224609375
0.029244460695622365,-0.008056640625,0.998291015625,-0.01806640625,2.288818359375,-0.86212158203125,0.48065185546875
0.029292585782513925,-0.008056640625,0.998291015625,-0.018798828125,2.288818359375,-0.823974609375,0.51116943359375
0.02934071086951917,-0.0087890625,0.99853515625,-0.018798828125,2.288818359375,-0.83160400390625,0.48828125
0.029388835956524417,-0.00830078125,0.997802734375,-0.01806640625,2.29644775390625,-0.8392333984375,0.49591064453125
0.029436961043415977,-0.008056640625,0.998779296875,-0.017822265625,2.3040771484375,-0.84686279296875,0.457763671875
0.029485086130421223,-0.0078125,0.997802734375,-0.01806640625,2.29644775390625,-0.86212158203125,0.49591064453125
0.02953321121742647,-0.00830078125,0.998046875,-0.018310546875,2.25830078125,-0.8697509765625,0.51116943359375
0.02958133630431803,-0.0087890625,0.99853515625,-0.017822265625,2.28118896484375,-0.87738037109375,0.48065185546875
0.029629461391323275,-0.008544921875,0.998291015625,-0.01806640625,2.28118896484375,-0.8697509765625,0.46539306640625
0.029677586478214835,-0.0078125,0.99853515625,-0.01806640625,2.25830078125,-0.885009765625,0.48065185546875
0.02972571156522008,-0.0078125,0.998291015625,-0.0185546875,2.3040771484375,-0.86212158203125,0.48828125
0.029773836652225327,-0.0078125,0.99853515625,-0.018798828125,2.288818359375,-0.8544921875,0.48065185546875
0.029821961739116887,-0.0087890625,0.99755859375,-0.0185546875,2.28118896484375,-0.8544921875,0.4730224609375
0.029870086826122133,-0.008056640625,0.997802734375,-0.018310546875,2.31170654296875,-0.87738037109375,0.48065185546875
0.029918211913013693,-0.008056640625,0.998046875,-0.017822265625,2.28118896484375,-0.8697509765625,0.46539306640625
0.02996633700001894,-0.008544921875,0.99853515625,-0.018310546875,2.29644775390625,-0.8697509765625,0.46539306640625
0.03027785171434516,-0.008056640625,0.998046875,-0.01806640625,2.3040771484375,-0.8697509765625,0.49591064453125
0.030589366428557696,-0.0087890625,0.997802734375,-0.018798828125,2.29644775390625,-0.83160400390625,0.5035400390625
0.030900881142883918,-0.00830078125,0.998291015625,-0.018798828125,2.29644775390625,-0.84686279296875,0.4730224609375
0.031212395857096453,-0.0087890625,0.997802734375,-0.01806640625,2.288818359375,-0.86212158203125,0.4730224609375
0.031523910571422675,-0.00830078125,0.998046875,-0.01806640625,2.2735595703125,-0.8392333984375,0.4730224609375
0.03183542528563521,-0.008056640625,0.998291015625,-0.017822265625,2.29644775390625,-0.8544921875,0.5035400390625
0.03214693999996143,-0.00732421875,0.998046875,-0.017333984375,2.288818359375,-0.87738037109375,0.48828125
0.041918272999964756,-0.007568359375,0.997802734375,-0.0185546875,2.3040771484375,-0.86212158203125,0.5035400390625
0.05275612999992063,-0.0087890625,0.99755859375,-0.018310546875,2.29644775390625,-0.84686279296875,0.48065185546875
0.06261556200001905,-0.0087890625,0.997802734375,-0.01806640625,2.3040771484375,-0.87738037109375,0.5035400390625
0.07248792199993659,-0.0078125,0.998046875,-0.017822265625,2.288818359375,-0.8697509765625,0.48065185546875
0.08223397400001886,-0.0078125,0.998046875,-0.01708984375,2.25830078125,-0.8544921875,0.48828125
0.09200645900000382,-0.0078125,0.99853515625,-0.018310546875,2.3040771484375,-0.83160400390625,0.5035400390625
0.10284172499996203,-0.0078125,0.99853515625,-0.018310546875,2.31170654296875,-0.84686279296875,0.48065185546875
0.11259760199993707,-0.00830078125,0.998046875,-0.018310546875,2.288818359375,-0.86212158203125,0.4730224609375
0.1223776069999758,-0.007568359375,0.998291015625,-0.017822265625,2.29644775390625,-0.8697509765625,0.48065185546875
0.13236289799999668,-0.008544921875,0.99853515625,-0.01806640625,2.31170654296875,-0.84686279296875,0.48065185546875
0.14242828699991605,-0.00830078125,0.998046875,-0.01708984375,2.29644775390625,-0.84686279296875,0.4730224609375
0.15214499499995782,-0.00830078125,0.998291015625,-0.017822265625,2.29644775390625,-0.8544921875,0.46539306640625
0.16239941300000282,-0.00830078125,0.998046875,-0.018310546875,2.25067138671875,-0.8544921875,0.46539306640625
0.17222613899991757,-0.0078125,0.997314453125,-0.01806640625,2.3040771484375,-0.86212158203125,0.51116943359375
0.1819176299999299,-0.008544921875,0.998046875,-0.017822265625,2.3040771484375,-0.8392333984375,0.4730224609375
0.192792160999943,-0.0078125,0.99755859375,-0.017822265625,2.3040771484375,-0.84686279296875,0.5035400390625
0.20263056800001777,-0.008544921875,0.998046875,-0.01806640625,2.288818359375,-0.8392333984375,0.49591064453125
0.21238887699996667,-0.008544921875,0.998291015625,-0.0185546875,2.31170654296875,-0.8544921875,0.46539306640625
0.22213947299997017,-0.00830078125,0.998291015625,-0.0185546875,2.3193359375,-0.84686279296875,0.45013427734375
0.23190376599995943,-0.00830078125,0.998291015625,-0.018310546875,2.3040771484375,-0.87738037109375,0.48065185546875
0.24277749700002005,-0.008544921875,0.99853515625,-0.017822265625,2.29644775390625,-0.885009765625,0.49591064453125
0.2525239330000204,-0.00830078125,0.998291015625,-0.01806640625,2.3345947265625,-0.8697509765625,0.5035400390625
0.26226595399998587,-0.00830078125,0.998779296875,-0.018310546875,2.3040771484375,-0.84686279296875,0.48065185546875
0.2720097659999965,-0.0078125,0.99853515625,-0.017578125,2.3040771484375,-0.8697509765625,0.48828125
0.2828591119999828,-0.008056640625,0.998046875,-0.01806640625,2.29644775390625,-0.87738037109375,0.5035400390625
0.2926026359999696,-0.00830078125,0.998046875,-0.0185546875,2.29644775390625,-0.8697509765625,0.5035400390625
0.3023698089999698,-0.008056640625,0.998046875,-0.0185546875,2.28118896484375,-0.87738037109375,0.457763671875
0.3121215559999655,-0.0078125,0.998046875,-0.018310546875,2.2735595703125,-0.84686279296875,0.46539306640625
0.3218822960000125,-0.0078125,0.998291015625,-0.0185546875,2.25830078125,-0.8697509765625,0.48828125
0.3327426820000028,-0.0078125,0.998779296875,-0.0185546875,2.2735595703125,-0.8392333984375,0.48065185546875
0.34249260499996126,-0.007568359375,0.998291015625,-0.018310546875,2.29644775390625,-0.8392333984375,0.46539306640625
0.3522429449999436,-0.00830078125,0.998779296875,-0.017578125,2.31170654296875,-0.84686279296875,0.48065185546875
0.3622479480000038,-0.0087890625,0.998779296875,-0.018310546875,2.3040771484375,-0.86212158203125,0.49591064453125
0.37202302399998644,-0.008056640625,0.99853515625,-0.017578125,2.3040771484375,-0.8392333984375,0.48828125
0.3828558249999787,-0.008056640625,0.998779296875,-0.017822265625,2.26593017578125,-0.8544921875,0.48065185546875
0.3928273540000191,-0.008056640625,0.99853515625,-0.017822265625,2.28118896484375,-0.86212158203125,0.48828125
0.40275971500000196,-0.00830078125,0.998291015625,-0.018310546875,2.2735595703125,-0.8544921875,0.48065185546875
0.41244838900001923,-0.007568359375,0.998291015625,-0.0185546875,2.29644775390625,-0.86212158203125,0.48065185546875
0.4221435270000029,-0.007568359375,0.99853515625,-0.018310546875,2.288818359375,-0.86212158203125,0.49591064453125
0.4319065079999973,-0.008544921875,0.998291015625,-0.01806640625,2.3040771484375,-0.8392333984375,0.48828125
0.4427376759999788,-0.00830078125,0.99853515625,-0.0185546875,2.288818359375,-0.8392333984375,0.48828125
0.45246763099999043,-0.00830078125,0.998291015625,-0.0185546875,2.31170654296875,-0.8697509765625,0.49591064453125
0.46219326599998567,-0.008056640625,0.99853515625,-0.017822265625,2.29644775390625,-0.8697509765625,0.4730224609375
0.47195211799999015,-0.008056640625,0.998046875,-0.018310546875,2.2735595703125,-0.8392333984375,0.4730224609375
0.4827978149999126,-0.008544921875,0.998046875,-0.01806640625,2.288818359375,-0.86212158203125,0.4730224609375
0.492551834999972,-0.008056640625,0.99755859375,-0.0185546875,2.29644775390625,-0.8697509765625,0.45013427734375
0.5023003829999197,-0.008056640625,0.99755859375,-0.018310546875,2.25067138671875,-0.885009765625,0.46539306640625
0.5120557789999793,-0.00830078125,0.99853515625,-0.018310546875,2.29644775390625,-0.86212158203125,0.49591064453125
0.5228949479999301,-0.008544921875,0.997802734375,-0.0185546875,2.2735595703125,-0.84686279296875,0.46539306640625
0.5326599759999908,-0.0078125,0.99853515625,-0.018310546875,2.28118896484375,-0.86212158203125,0.48828125
0.5424101549999705,-0.0078125,0.997802734375,-0.017578125,2.31170654296875,-0.84686279296875,0.49591064453125
0.5521858399999928,-0.0078125,0.998291015625,-0.018310546875,2.28118896484375,-0.8697509765625,0.4730224609375
0.5619492039999159,-0.008056640625,0.998046875,-0.017822265625,2.31170654296875,-0.8392333984375,0.48828125
0.5727944849999176,-0.00830078125,0.998046875,-0.017578125,2.29644775390625,-0.8544921875,0.49591064453125
0.5825622649999787,-0.0078125,0.99853515625,-0.017333984375,2.288818359375,-0.86212158203125,0.457763671875
0.5923279329999787,-0.00830078125,0.99853515625,-0.0185546875,2.28118896484375,-0.87738037109375,0.4730224609375
0.6020832649999193,-0.0078125,0.998046875,-0.01904296875,2.3193359375,-0.8544921875,0.48065185546875
0.6129249939999681,-0.008056640625,0.998046875,-0.01806640625,2.29644775390625,-0.8544921875,0.4730224609375
0.6226691260000052,-0.008544921875,0.998779296875,-0.018310546875,2.3040771484375,-0.83160400390625,0.457763671875
0.6324088089999123,-0.008056640625,0.99853515625,-0.017822265625,2.3040771484375,-0.86212158203125,0.4730224609375
0.6421283959999755,-0.0078125,0.998291015625,-0.018310546875,2.3040771484375,-0.84686279296875,0.4730224609375
0.6529945409999982,-0.009033203125,0.998046875,-0.017578125,2.3040771484375,-0.885009765625,0.48065185546875
0.662761201999956,-0.00830078125,0.997802734375,-0.01806640625,2.288818359375,-0.8697509765625,0.518798828125
0.6725082130000146,-0.00830078125,0.997802734375,-0.01806640625,2.26593017578125,-0.8544921875,0.5035400390625
0.682253560999925,-0.008544921875,0.997802734375,-0.01806640625,2.29644775390625,-0.86212158203125,0.5035400390625
0.6920256610000024,-0.00830078125,0.998779296875,-0.01806640625,2.31170654296875,-0.8697509765625,0.48828125
0.702883806999921,-0.007568359375,0.998291015625,-0.0185546875,2.31170654296875,-0.87738037109375,0.48065185546875
0.7126311380000061,-0.008056640625,0.998291015625,-0.01806640625,2.3040771484375,-0.84686279296875,0.49591064453125
0.7223944379999239,-0.008056640625,0.99853515625,-0.01806640625,2.28118896484375,-0.86212158203125,0.51116943359375
0.7321458659999962,-0.0078125,0.99853515625,-0.018798828125,2.3193359375,-0.8697509765625,0.51116943359375
0.7419289749999507,-0.008056640625,0.998046875,-0.018798828125,2.288818359375,-0.8697509765625,0.5035400390625
0.7527683359999173,-0.0078125,0.998046875,-0.017822265625,2.288818359375,-0.86212158203125,0.4730224609375
0.7625683410000192,-0.009033203125,0.99853515625,-0.018798828125,2.3193359375,-0.8544921875,0.5035400390625
0.7723125679999612,-0.00830078125,0.998046875,-0.017822265625,2.28118896484375,-0.8392333984375,0.48828125
0.7820703959999946,-0.008544921875,0.997314453125,-0.018310546875,2.3040771484375,-0.86212158203125,0.49591064453125
0.7929139809999697,-0.008544921875,0.998291015625,-0.01806640625,2.288818359375,-0.8544921875,0.48065185546875
0.8026655369999389,-0.009033203125,0.998046875,-0.018310546875,2.2735595703125,-0.83160400390625,0.46539306640625
0.8124217649999537,-0.008544921875,0.998046875,-0.017822265625,2.3040771484375,-0.86212158203125,0.48065185546875
0.8221792729999606,-0.00830078125,0.998046875,-0.01806640625,2.25830078125,-0.8392333984375,0.48828125
0.8319645249999894,-0.008544921875,0.99853515625,-0.01806640625,2.28118896484375,-0.8697509765625,0.49591064453125
0.8428113740000072,-0.00732421875,0.998046875,-0.018310546875,2.28118896484375,-0.86212158203125,0.46539306640625
0.8526319879999846,-0.008544921875,0.998291015625,-0.0185546875,2.28118896484375,-0.84686279296875,0.48065185546875
0.8624160890000212,-0.0078125,0.997802734375,-0.017578125,2.3040771484375,-0.87738037109375,0.48065185546875
0.8721658199999638,-0.00830078125,0.998046875,-0.018310546875,2.29644775390625,-0.8544921875,0.48828125
0.8819343689999641,-0.008544921875,0.998046875,-0.018310546875,2.31170654296875,-0.8697509765625,0.49591064453125
0.8927720010000257,-0.007568359375,0.99853515625,-0.01806640625,2.29644775390625,-0.86212158203125,0.4730224609375
0.9025505339999427,-0.00830078125,0.99755859375,-0.017822265625,2.28118896484375,-0.86212158203125,0.45013427734375
0.9123418990000118,-0.00830078125,0.998046875,-0.01806640625,2.29644775390625,-0.8544921875,0.49591064453125
0.9220875979999619,-0.009033203125,0.998046875,-0.018310546875,2.3193359375,-0.8544921875,0.49591064453125
0.9329245269999547,-0.009033203125,0.99853515625,-0.01806640625,2.29644775390625,-0.8697509765625,0.45013427734375
0.9426931389999709,-0.008056640625,0.998291015625,-0.018310546875,2.288818359375,-0.8544921875,0.5035400390625
0.9524386150000055,-0.008544921875,0.998046875,-0.01806640625,2.288818359375,-0.86212158203125,0.48065185546875
0.9622032909999234,-0.00830078125,0.998046875,-0.018310546875,2.288818359375,-0.86212158203125,0.48065185546875
0.971971870999937,-0.00830078125,0.99853515625,-0.0185546875,2.288818359375,-0.86212158203125,0.48828125
0.9820661879999761,-0.00830078125,0.998291015625,-0.018310546875,2.3040771484375,-0.8697509765625,0.4730224609375
0.9928973569999471,-0.0087890625,0.99853515625,-0.01806640625,2.3193359375,-0.8544921875,0.4730224609375
1.0026561449999463,-0.00830078125,0.998046875,-0.017822265625,2.29644775390625,-0.8544921875,0.48065185546875
1.0125403759999472,-0.00830078125,0.998046875,-0.018798828125,2.28118896484375,-0.84686279296875,0.46539306640625
1.0222152259999575,-0.00732421875,0.998291015625,-0.0185546875,2.3040771484375,-0.86212158203125,0.5035400390625
1.0329405679999581,-0.007568359375,0.99853515625,-0.018310546875,2.28118896484375,-0.8544921875,0.49591064453125
1.0428354549999312,-0.00830078125,0.99853515625,-0.018310546875,2.2735595703125,-0.8544921875,0.5035400390625
1.0526408040000206,-0.008056640625,0.99755859375,-0.018310546875,2.288818359375,-0.86212158203125,0.48828125
1.0623264700000163,-0.00830078125,0.997802734375,-0.017822265625,2.288818359375,-0.86212158203125,0.48065185546875
1.0719914000000017,-0.007568359375,0.9990234375,-0.017822265625,2.28118896484375,-0.87738037109375,0.4730224609375
1.0827525830000013,-0.008056640625,0.99853515625,-0.017822265625,2.3040771484375,-0.8544921875,0.49591064453125
1.0924813859999176,-0.00732421875,0.997314453125,-0.018310546875,2.288818359375,-0.8392333984375,0.46539306640625
1.1021960449999142,-0.0078125,0.99755859375,-0.01806640625,2.288818359375,-0.8392333984375,0.457763671875
1.1119658090000257,-0.00830078125,0.998291015625,-0.01806640625,2.31170654296875,-0.8697509765625,0.4730224609375
1.122868851000021,-0.008544921875,0.997802734375,-0.01806640625,2.28118896484375,-0.86212158203125,0.46539306640625
1.1326352559999577,-0.00830078125,0.998046875,-0.01806640625,2.29644775390625,-0.8697509765625,0.46539306640625
1.142400987999963,-0.008544921875,0.998291015625,-0.018310546875,2.288818359375,-0.84686279296875,0.5035400390625
1.152218816999948,-0.008056640625,0.99853515625,-0.018310546875,2.28118896484375,-0.8544921875,0.4730224609375
1.1620715279999558,-0.0087890625,0.998046875,-0.018310546875,2.29644775390625,-0.8544921875,0.48065185546875
1.171948590999932,-0.008056640625,0.998291015625,-0.017822265625,2.288818359375,-0.8544921875,0.49591064453125
1.1819801539999162,-0.008056640625,0.997802734375,-0.0185546875,2.3040771484375,-0.8544921875,0.4730224609375
1.1928309389999185,-0.008544921875,0.998291015625,-0.017822265625,2.288818359375,-0.8697509765625,0.48828125
1.2025333099999216,-0.0078125,0.99853515625,-0.017578125,2.288818359375,-0.87738037109375,0.4730224609375
1.2122944019999977,-0.008056640625,0.998291015625,-0.01806640625,2.288818359375,-0.86212158203125,0.49591064453125
1.2220593979999421,-0.008056640625,0.998046875,-0.01806640625,2.28118896484375,-0.8544921875,0.49591064453125
1.232915207000019,-0.0078125,0.998779296875,-0.017822265625,2.29644775390625,-0.8544921875,0.49591064453125
1.2430258439999307,-0.0078125,0.997802734375,-0.01708984375,2.288818359375,-0.86212158203125,0.5035400390625
1.2527873519999275,-0.008056640625,0.99755859375,-0.017822265625,2.3345947265625,-0.86212158203125,0.48065185546875
1.2625226839999186,-0.008056640625,0.99853515625,-0.018310546875,2.2735595703125,-0.8544921875,0.4730224609375
1.2722688310000194,-0.008544921875,0.998779296875,-0.017578125,2.288818359375,-0.8544921875,0.49591064453125
1.2820312359999662,-0.0087890625,0.99853515625,-0.017578125,2.28118896484375,-0.8697509765625,0.518798828125
1.2928699880000067,-0.008544921875,0.99755859375,-0.01806640625,2.32696533203125,-0.87738037109375,0.46539306640625
1.3025996229999919,-0.0078125,0.997802734375,-0.017822265625,2.29644775390625,-0.8544921875,0.46539306640625
1.3123538019999614,-0.0078125,0.998046875,-0.017333984375,2.31170654296875,-0.8544921875,0.4730224609375
1.3220871159999206,-0.00830078125,0.998779296875,-0.018798828125,2.29644775390625,-0.86212158203125,0.48828125
1.3329231479999635,-0.00830078125,0.997802734375,-0.018798828125,2.288818359375,-0.84686279296875,0.46539306640625
1.3426674390000244,-0.008056640625,0.998291015625,-0.018310546875,2.2735595703125,-0.8544921875,0.46539306640625
1.3524068969999234,-0.0078125,0.99853515625,-0.01806640625,2.288818359375,-0.8697509765625,0.51116943359375
1.3621411079999461,-0.008056640625,0.99853515625,-0.01806640625,2.29644775390625,-0.87738037109375,0.49591064453125
1.3729673149999826,-0.008056640625,0.998046875,-0.01806640625,2.29644775390625,-0.86212158203125,0.5035400390625
1.3829783649999854,-0.00830078125,0.998291015625,-0.018310546875,2.28118896484375,-0.8544921875,0.4730224609375
1.3927549769999814,-0.008544921875,0.99853515625,-0.01806640625,2.28118896484375,-0.86212158203125,0.48065185546875
1.402520099999947,-0.00830078125,0.998291015625,-0.0185546875,2.28118896484375,-0.84686279296875,0.4730224609375
1.4122934800000166,-0.008056640625,0.99755859375,-0.018310546875,2.288818359375,-0.8392333984375,0.457763671875
1.4220846839999695,-0.0078125,0.997802734375,-0.018310546875,2.25830078125,-0.86212158203125,0.48065185546875
1.432928908000008,-0.0078125,0.998291015625,-0.0185546875,2.288818359375,-0.87738037109375,0.48065185546875
1.4426763019999953,-0.008056640625,0.99853515625,-0.0185546875,2.288818359375,-0.8697509765625,0.48065185546875
1.452421361000006,-0.0078125,0.9990234375,-0.01806640625,2.288818359375,-0.8392333984375,0.48828125
1.4621614599999475,-0.00830078125,0.997802734375,-0.018310546875,2.29644775390625,-0.8544921875,0.49591064453125
1.4730191879999666,-0.008056640625,0.997802734375,-0.018310546875,2.28118896484375,-0.86212158203125,0.48065185546875
1.482783511999969,-0.008056640625,0.998046875,-0.017578125,2.28118896484375,-0.8697509765625,0.5035400390625
1.4925185859999601,-0.008056640625,0.998291015625,-0.01806640625,2.288818359375,-0.885009765625,0.49591064453125
1.5022830049999811,-0.008056640625,0.998291015625,-0.0185546875,2.288818359375,-0.86212158203125,0.5035400390625
1.5120514889999868,-0.00830078125,0.99853515625,-0.01806640625,2.288818359375,-0.885009765625,0.51116943359375
1.522876895999957,-0.00830078125,0.99853515625,-0.017578125,2.29644775390625,-0.8544921875,0.457763671875
1.5326577319999615,-0.008056640625,0.998291015625,-0.01806640625,2.29644775390625,-0.86212158203125,0.46539306640625
1.5424437839999428,-0.0078125,0.998046875,-0.01806640625,2.288818359375,-0.8697509765625,0.4730224609375
1.5521960429999808,-0.0078125,0.998291015625,-0.017578125,2.31170654296875,-0.8697509765625,0.48828125
1.5619621579999148,-0.00830078125,0.998291015625,-0.017822265625,2.28118896484375,-0.8697509765625,0.46539306640625
1.5728727519999666,-0.008544921875,0.99853515625,-0.01806640625,2.3040771484375,-0.8392333984375,0.48065185546875
1.5826769479999712,-0.008056640625,0.998291015625,-0.017822265625,2.288818359375,-0.8544921875,0.49591064453125
1.592825122000022,-0.0078125,0.998046875,-0.018798828125,2.3193359375,-0.86212158203125,0.48065185546875
1.6027275929999405,-0.008056640625,0.998046875,-0.018310546875,2.288818359375,-0.8392333984375,0.46539306640625
1.612528172999987,-0.00830078125,0.998046875,-0.01806640625,2.2735595703125,-0.86212158203125,0.46539306640625
1.6223626739999872,-0.008544921875,0.997802734375,-0.017822265625,2.31170654296875,-0.87738037109375,0.457763671875
1.6320350269999153,-0.007568359375,0.998291015625,-0.0185546875,2.3040771484375,-0.86212158203125,0.48065185546875
1.642887762999976,-0.00830078125,0.998046875,-0.017578125,2.288818359375,-0.87738037109375,0.48065185546875
1.6526566950000188,-0.008056640625,0.998046875,-0.017578125,2.25830078125,-0.8392333984375,0.4730224609375
1.662428986000009,-0.0078125,0.998291015625,-0.0185546875,2.288818359375,-0.8544921875,0.48065185546875
1.6721790049999754,-0.008056640625,0.998779296875,-0.018798828125,2.28118896484375,-0.8544921875,0.457763671875
1.681965024999954,-0.008544921875,0.998779296875,-0.018310546875,2.288818359375,-0.8392333984375,0.48065185546875
1.692815616999951,-0.008544921875,0.998046875,-0.01806640625,2.2735595703125,-0.86212158203125,0.48828125
1.7025558760000195,-0.0078125,0.9990234375,-0.01806640625,2.2735595703125,-0.86212158203125,0.5035400390625
1.712294310999937,-0.008544921875,0.998291015625,-0.017578125,2.25830078125,-0.8392333984375,0.4730224609375
1.722087690999956,-0.008056640625,0.998046875,-0.01806640625,2.29644775390625,-0.86212158203125,0.49591064453125
1.7329215459999432,-0.008056640625,0.998046875,-0.018310546875,2.29644775390625,-0.83160400390625,0.51116943359375
1.7426629249999905,-0.008056640625,0.998046875,-0.01806640625,2.3040771484375,-0.81634521484375,0.48828125
1.7525540999999976,-0.008056640625,0.998291015625,-0.018310546875,2.288818359375,-0.8544921875,0.48828125
1.762318774999926,-0.00830078125,0.99755859375,-0.017333984375,2.288818359375,-0.8697509765625,0.48065185546875
1.772060281999984,-0.00830078125,0.998046875,-0.017578125,2.29644775390625,-0.823974609375,0.48065185546875
1.7828894649999256,-0.0087890625,0.997314453125,-0.018310546875,2.288818359375,-0.86212158203125,0.46539306640625
1.7926608609999448,-0.00830078125,0.998046875,-0.017822265625,2.3193359375,-0.86212158203125,0.49591064453125
1.802453024999977,-0.00830078125,0.997802734375,-0.017822265625,2.3040771484375,-0.86212158203125,0.4730224609375
1.8122338929999842,-0.008056640625,0.998291015625,-0.01806640625,2.29644775390625,-0.84686279296875,0.4730224609375
1.8219911439999805,-0.008544921875,0.99853515625,-0.017822265625,2.3040771484375,-0.8544921875,0.4730224609375
1.832812358999945,-0.00830078125,0.998291015625,-0.017822265625,2.3040771484375,-0.84686279296875,0.4730224609375
1.8425394969999616,-0.0078125,0.997802734375,-0.018310546875,2.29644775390625,-0.8697509765625,0.46539306640625
1.852244939000002,-0.0078125,0.998046875,-0.017822265625,2.28118896484375,-0.8697509765625,0.46539306640625
1.8630263449999802,-0.0078125,0.998779296875,-0.01806640625,2.29644775390625,-0.86212158203125,0.4730224609375
1.8728208779999704,-0.007568359375,0.998046875,-0.018310546875,2.288818359375,-0.86212158203125,0.5035400390625
1.8825961769999822,-0.0078125,0.998046875,-0.018310546875,2.28118896484375,-0.8544921875,0.46539306640625
1.8923933649999753,-0.0078125,0.99853515625,-0.017822265625,2.28118896484375,-0.89263916015625,0.48065185546875
1.9021368239999674,-0.0078125,0.99853515625,-0.01806640625,2.28118896484375,-0.86212158203125,0.48828125
1.9129633520000198,-0.0078125,0.998046875,-0.0185546875,2.288818359375,-0.8697509765625,0.4730224609375
1.9226968579999948,-0.007568359375,0.998046875,-0.017822265625,2.34222412109375,-0.86212158203125,0.457763671875
1.9324295010000014,-0.00830078125,0.997314453125,-0.017333984375,2.28118896484375,-0.86212158203125,0.48828125
1.9421951360000094,-0.00830078125,0.998779296875,-0.01806640625,2.29644775390625,-0.8697509765625,0.49591064453125
1.9530338879999363,-0.00830078125,0.998291015625,-0.01806640625,2.26593017578125,-0.8544921875,0.48065185546875
1.962794530999986,-0.0087890625,0.998046875,-0.0185546875,2.288818359375,-0.8544921875,0.457763671875
1.972540677999973,-0.0087890625,0.998046875,-0.017822265625,2.29644775390625,-0.8544921875,0.48828125
1.982269352000003,-0.007568359375,0.998291015625,-0.01806640625,2.288818359375,-0.8544921875,0.51116943359375
1.9920167469999797,-0.008056640625,0.998291015625,-0.01806640625,2.2735595703125,-0.8392333984375,0.4730224609375
2.0028325219999488,-0.008544921875,0.99853515625,-0.017822265625,2.2735595703125,-0.8544921875,0.48065185546875
2.0126938079999945,-0.008544921875,0.998046875,-0.018310546875,2.28118896484375,-0.83160400390625,0.51116943359375
2.02261010299992,-0.007568359375,0.99853515625,-0.017578125,2.3040771484375,-0.8544921875,0.48828125
2.0323525059999383,-0.008056640625,0.99853515625,-0.017822265625,2.29644775390625,-0.8697509765625,0.5035400390625
2.0420867489999637,-0.00830078125,0.998046875,-0.0185546875,2.31170654296875,-0.8544921875,0.48065185546875
2.0530494399999952,-0.00830078125,0.998046875,-0.01806640625,2.2735595703125,-0.86212158203125,0.48065185546875
2.0620665430000145,-0.00830078125,0.998046875,-0.018310546875,2.25830078125,-0.86212158203125,0.51116943359375
2.0722170529999175,-0.008544921875,0.998291015625,-0.018310546875,2.26593017578125,-0.8697509765625,0.48065185546875
2.082144067999934,-0.00830078125,0.998291015625,-0.017822265625,2.29644775390625,-0.86212158203125,0.4730224609375
2.092985315999954,-0.0078125,0.998779296875,-0.01806640625,2.29644775390625,-0.86212158203125,0.48828125
2.1027084229999673,-0.0078125,0.998046875,-0.017578125,2.288818359375,-0.86212158203125,0.4730224609375
2.1124562009999863,-0.0078125,0.99853515625,-0.017578125,2.28118896484375,-0.86212158203125,0.457763671875
2.1221968439999728,-0.008544921875,0.998046875,-0.01806640625,2.28118896484375,-0.8392333984375,0.4730224609375
2.1330452280000145,-0.0078125,0.99853515625,-0.0185546875,2.28118896484375,-0.8544921875,0.51116943359375
2.1428131999999778,-0.0078125,0.99853515625,-0.018310546875,2.3040771484375,-0.8392333984375,0.46539306640625
2.1525562739999486,-0.00830078125,0.998779296875,-0.0185546875,2.3040771484375,-0.8544921875,0.4730224609375
2.1623106129999314,-0.008056640625,0.998291015625,-0.018798828125,2.2735595703125,-0.89263916015625,0.49591064453125
2.1720825529999956,-0.008056640625,0.998779296875,-0.017578125,2.26593017578125,-0.87738037109375,0.4730224609375
2.1830855329999395,-0.0078125,0.998291015625,-0.017822265625,2.288818359375,-0.87738037109375,0.5035400390625
2.1928309119999767,-0.00732421875,0.998046875,-0.017578125,2.29644775390625,-0.8697509765625,0.48065185546875
2.202590306999923,-0.00830078125,0.99853515625,-0.017822265625,2.28118896484375,-0.8544921875,0.4730224609375
2.212351269999999,-0.008544921875,0.9990234375,-0.01806640625,2.288818359375,-0.86212158203125,0.5035400390625
2.222112745000004,-0.00830078125,0.998291015625,-0.018798828125,2.28118896484375,-0.84686279296875,0.48828125
2.2329382489999716,-0.0078125,0.997802734375,-0.01806640625,2.3040771484375,-0.8392333984375,0.48065185546875
2.2426764279999816,-0.0078125,0.998291015625,-0.01806640625,2.32696533203125,-0.84686279296875,0.48065185546875
2.2524401429999443,-0.00830078125,0.99755859375,-0.017578125,2.29644775390625,-0.86212158203125,0.48065185546875
2.26219188999994,-0.00830078125,0.998291015625,-0.018310546875,2.29644775390625,-0.83160400390625,0.48065185546875
2.2719570770000246,-0.007568359375,0.998291015625,-0.018798828125,2.2735595703125,-0.8544921875,0.48065185546875
2.2828032209999947,-0.007568359375,0.997802734375,-0.01806640625,2.2735595703125,-0.86212158203125,0.48828125
2.2925331110000116,-0.0078125,0.998291015625,-0.0185546875,2.28118896484375,-0.8544921875,0.48828125
2.3022628090000126,-0.0078125,0.998046875,-0.01806640625,2.25830078125,-0.86212158203125,0.48065185546875
2.312019738999993,-0.008544921875,0.99755859375,-0.017578125,2.288818359375,-0.8392333984375,0.49591064453125
2.322860665999997,-0.008544921875,0.998291015625,-0.018798828125,2.2735595703125,-0.86212158203125,0.48828125
2.33259564399998,-0.0087890625,0.998291015625,-0.018310546875,2.288818359375,-0.8392333984375,0.49591064453125
2.3423290219999444,-0.008056640625,0.99853515625,-0.018310546875,2.29644775390625,-0.8544921875,0.518798828125
2.35207849599999,-0.008056640625,0.998291015625,-0.018310546875,2.288818359375,-0.8544921875,0.518798828125
2.3628982699999597,-0.00732421875,0.997802734375,-0.01806640625,2.28118896484375,-0.8392333984375,0.5035400390625
2.3726422400000047,-0.00830078125,0.997802734375,-0.017578125,2.288818359375,-0.8544921875,0.46539306640625
2.382376833999956,-0.008544921875,0.99853515625,-0.017822265625,2.28118896484375,-0.8392333984375,0.49591064453125
2.392113956000003,-0.008544921875,0.998291015625,-0.018310546875,2.3040771484375,-0.8392333984375,0.4730224609375
2.403178888999946,-0.00830078125,0.997802734375,-0.0185546875,2.3040771484375,-0.86212158203125,0.46539306640625
2.4119791529999475,-0.0078125,0.998779296875,-0.01806640625,2.3040771484375,-0.86212158203125,0.457763671875
2.4228545129999475,-0.008544921875,0.997802734375,-0.01806640625,2.3193359375,-0.8544921875,0.48065185546875
2.432601298999998,-0.008544921875,0.997802734375,-0.017822265625,2.3040771484375,-0.8392333984375,0.457763671875
2.4423445969999875,-0.00830078125,0.998046875,-0.017578125,2.3040771484375,-0.86212158203125,0.48065185546875
2.4521137839999483,-0.008544921875,0.998291015625,-0.01806640625,2.31170654296875,-0.9002685546875,0.48065185546875
2.461986364999916,-0.008056640625,0.99853515625,-0.0185546875,2.29644775390625,-0.86212158203125,0.46539306640625
2.472993024999937,-0.0078125,0.998046875,-0.018310546875,2.25830078125,-0.823974609375,0.4730224609375
2.48275859499995,-0.0087890625,0.99853515625,-0.018310546875,2.28118896484375,-0.8544921875,0.4730224609375
2.492495364999968,-0.0078125,0.998291015625,-0.01806640625,2.2735595703125,-0.87738037109375,0.46539306640625
2.5022338310000123,-0.0078125,0.998291015625,-0.01904296875,2.288818359375,-0.8544921875,0.45013427734375
2.5119940569999244,-0.008544921875,0.99853515625,-0.018310546875,2.288818359375,-0.8544921875,0.48828125
2.522819719999916,-0.008544921875,0.998779296875,-0.018310546875,2.288818359375,-0.8697509765625,0.49591064453125
2.5325572570000077,-0.00830078125,0.998291015625,-0.018310546875,2.29644775390625,-0.86212158203125,0.49591064453125
2.542324651999934,-0.00830078125,0.997802734375,-0.01806640625,2.3193359375,-0.86212158203125,0.4730224609375
2.552110287000005,-0.0078125,0.99853515625,-0.018310546875,2.288818359375,-0.8697509765625,0.48828125
2.5629272769999716,-0.00830078125,0.99853515625,-0.0185546875,2.28118896484375,-0.8392333984375,0.5035400390625
2.572652846999972,-0.008544921875,0.998046875,-0.0185546875,2.28118896484375,-0.84686279296875,0.48065185546875
2.5823926890000166,-0.008544921875,0.998046875,-0.018798828125,2.29644775390625,-0.8544921875,0.48065185546875
2.5921476669999493,-0.0087890625,0.998046875,-0.018310546875,2.29644775390625,-0.8544921875,0.4730224609375
2.6029685610000115,-0.008544921875,0.997802734375,-0.0185546875,2.288818359375,-0.86212158203125,0.5035400390625
2.6127378119999776,-0.00830078125,0.997802734375,-0.01708984375,2.29644775390625,-0.8392333984375,0.48065185546875
2.6226329219999798,-0.00732421875,0.998046875,-0.017578125,2.288818359375,-0.8544921875,0.457763671875
2.632419036999977,-0.008544921875,0.9990234375,-0.01806640625,2.29644775390625,-0.8697509765625,0.48065185546875
2.642156254999918,-0.0078125,0.99853515625,-0.017578125,2.29644775390625,-0.84686279296875,0.457763671875
2.652986397999939,-0.00732421875,0.998291015625,-0.017333984375,2.31170654296875,-0.8544921875,0.48065185546875
2.662720959000012,-0.008544921875,0.998291015625,-0.017822265625,2.3040771484375,-0.8697509765625,0.48065185546875
2.6724647369999275,-0.008056640625,0.998291015625,-0.018310546875,2.288818359375,-0.8544921875,0.4730224609375
2.682195970999942,-0.008544921875,0.9990234375,-0.018310546875,2.28118896484375,-0.8544921875,0.4730224609375
2.693069666999918,-0.00830078125,0.99853515625,-0.018310546875,2.26593017578125,-0.8544921875,0.48828125
2.7028354609999496,-0.008056640625,0.998291015625,-0.01806640625,2.2735595703125,-0.86212158203125,0.49591064453125
2.7125871749999533,-0.008544921875,0.997802734375,-0.01806640625,2.28118896484375,-0.8544921875,0.49591064453125
2.722328104999974,-0.008056640625,0.998046875,-0.01806640625,2.28118896484375,-0.86212158203125,0.49591064453125
2.7320784749999802,-0.00830078125,0.998046875,-0.0185546875,2.3193359375,-0.8392333984375,0.457763671875
2.742898537999963,-0.008544921875,0.997802734375,-0.01806640625,2.29644775390625,-0.86212158203125,0.46539306640625
2.752624394999998,-0.007080078125,0.99853515625,-0.018310546875,2.25830078125,-0.8697509765625,0.49591064453125
2.7623459650000086,-0.008056640625,0.998779296875,-0.017822265625,2.28118896484375,-0.8544921875,0.48065185546875
2.7720895830000245,-0.008544921875,0.998779296875,-0.018798828125,2.31170654296875,-0.86212158203125,0.46539306640625
2.7829016449999244,-0.008544921875,0.998291015625,-0.018310546875,2.288818359375,-0.87738037109375,0.48065185546875
2.792643311000006,-0.008056640625,0.99853515625,-0.018798828125,2.3040771484375,-0.8544921875,0.48065185546875
2.8024789950000013,-0.008544921875,0.998779296875,-0.0185546875,2.3040771484375,-0.86212158203125,0.48828125
2.8122349970000187,-0.00830078125,0.998291015625,-0.0185546875,2.28118896484375,-0.86212158203125,0.48065185546875
2.8221108430000186,-0.008056640625,0.99853515625,-0.018798828125,2.288818359375,-0.8544921875,0.48828125
2.8329412729999603,-0.008056640625,0.997802734375,-0.018798828125,2.3193359375,-0.8697509765625,0.48065185546875
2.842704891999915,-0.0078125,0.998291015625,-0.017822265625,2.3040771484375,-0.885009765625,0.49591064453125
2.8524701740000182,-0.008544921875,0.99853515625,-0.01806640625,2.29644775390625,-0.86212158203125,0.4730224609375
2.8622129599999653,-0.00830078125,0.998046875,-0.0185546875,2.288818359375,-0.86212158203125,0.4730224609375
2.8730383669999355,-0.0078125,0.99853515625,-0.018798828125,2.3040771484375,-0.8544921875,0.4730224609375
2.882777856999951,-0.00830078125,0.999267578125,-0.018310546875,2.3040771484375,-0.87738037109375,0.49591064453125
2.892499874000009,-0.008056640625,0.997802734375,-0.01806640625,2.3040771484375,-0.86212158203125,0.4730224609375
2.9022429799999827,-0.008544921875,0.998046875,-0.01806640625,2.28118896484375,-0.86212158203125,0.49591064453125
2.912015815000018,-0.008544921875,0.998046875,-0.0185546875,2.288818359375,-0.84686279296875,0.49591064453125
2.9228372530000115,-0.0078125,0.997802734375,-0.018310546875,2.3345947265625,-0.8392333984375,0.51116943359375
2.9325651909999806,-0.00830078125,0.99853515625,-0.01806640625,2.3193359375,-0.84686279296875,0.48828125
2.942291399999931,-0.008056640625,0.998291015625,-0.01806640625,2.29644775390625,-0.8392333984375,0.48828125
2.9520585709999523,-0.008544921875,0.997802734375,-0.018310546875,2.28118896484375,-0.84686279296875,0.48065185546875
2.962890377000008,-0.008544921875,0.998291015625,-0.01806640625,2.288818359375,-0.84686279296875,0.48065185546875
2.972625643000015,-0.00830078125,0.998291015625,-0.017822265625,2.29644775390625,-0.84686279296875,0.48065185546875
2.9823593730000084,-0.008544921875,0.997802734375,-0.01806640625,2.29644775390625,-0.8697509765625,0.46539306640625
2.992102831000011,-0.008056640625,0.99853515625,-0.018310546875,2.29644775390625,-0.8697509765625,0.48828125
3.002947918000018,-0.0078125,0.998779296875,-0.018310546875,2.32696533203125,-0.84686279296875,0.49591064453125
3.0127123999999412,-0.008056640625,0.998046875,-0.01806640625,2.31170654296875,-0.86212158203125,0.48065185546875
3.022475923000002,-0.008056640625,0.998291015625,-0.01806640625,2.29644775390625,-0.87738037109375,0.49591064453125
3.032207668999945,-0.008056640625,0.998291015625,-0.017333984375,2.3040771484375,-0.86212158203125,0.48065185546875
3.0420787460000156,-0.0087890625,0.997802734375,-0.017822265625,2.28118896484375,-0.8697509765625,0.46539306640625
3.0521512999999914,-0.00830078125,0.997314453125,-0.01806640625,2.3040771484375,-0.86212158203125,0.48065185546875
3.0629626269999335,-0.008544921875,0.99853515625,-0.018310546875,2.3193359375,-0.8392333984375,0.49591064453125
3.072768101999941,-0.0087890625,0.99853515625,-0.018310546875,2.3040771484375,-0.86212158203125,0.49591064453125
3.0826136109999425,-0.00830078125,0.998779296875,-0.018310546875,2.3040771484375,-0.87738037109375,0.51116943359375
3.0923648130000174,-0.008544921875,0.998291015625,-0.018310546875,2.2735595703125,-0.8544921875,0.51116943359375
3.1021175829999947,-0.008544921875,0.99853515625,-0.0185546875,2.31170654296875,-0.8544921875,0.4730224609375
3.1129703509999445,-0.00830078125,0.998291015625,-0.018798828125,2.288818359375,-0.8697509765625,0.48828125
3.122715984000024,-0.008544921875,0.997802734375,-0.018310546875,2.25830078125,-0.8544921875,0.48065185546875
3.1324723389999463,-0.00830078125,0.99853515625,-0.0185546875,2.28118896484375,-0.8544921875,0.5035400390625
3.1422141009999223,-0.0087890625,0.99853515625,-0.0185546875,2.32696533203125,-0.8392333984375,0.49591064453125
3.1531128209999224,-0.0087890625,0.998291015625,-0.017822265625,2.32696533203125,-0.84686279296875,0.49591064453125
3.162851350999972,-0.008056640625,0.998291015625,-0.018310546875,2.3193359375,-0.8544921875,0.48828125
3.1725849849999577,-0.0078125,0.997802734375,-0.01806640625,2.31170654296875,-0.86212158203125,0.5035400390625
3.1823172419999537,-0.0078125,0.99853515625,-0.0185546875,2.26593017578125,-0.8544921875,0.49591064453125
3.1920718689999603,-0.00830078125,0.99853515625,-0.0185546875,2.288818359375,-0.84686279296875,0.4730224609375
3.202927387999921,-0.0087890625,0.997802734375,-0.017822265625,2.29644775390625,-0.86212158203125,0.49591064453125
3.2126853739999888,-0.0087890625,0.99755859375,-0.0185546875,2.29644775390625,-0.84686279296875,0.46539306640625
3.2224482249999937,-0.0078125,0.998046875,-0.018310546875,2.288818359375,-0.86212158203125,0.457763671875
3.232204994999961,-0.00830078125,0.99853515625,-0.017822265625,2.32696533203125,-0.83160400390625,0.48065185546875
3.243043746000012,-0.008056640625,0.998291015625,-0.018798828125,2.288818359375,-0.86212158203125,0.4730224609375
3.2527772199999845,-0.008544921875,0.998291015625,-0.01806640625,2.2735595703125,-0.8544921875,0.48065185546875
3.2625297659999433,-0.00830078125,0.997314453125,-0.018798828125,2.26593017578125,-0.83160400390625,0.51116943359375
3.272259558999963,-0.008544921875,0.998046875,-0.01806640625,2.28118896484375,-0.86212158203125,0.48065185546875
3.2820056089999525,-0.0087890625,0.998779296875,-0.017333984375,2.29644775390625,-0.84686279296875,0.48828125
3.2928528080000206,-0.007568359375,0.99853515625,-0.017578125,2.288818359375,-0.8392333984375,0.49591064453125
3.302625865999971,-0.0078125,0.9990234375,-0.01806640625,2.2735595703125,-0.8392333984375,0.4730224609375
3.312356106999914,-0.0078125,0.9990234375,-0.01806640625,2.2735595703125,-0.8544921875,0.4730224609375
3.322108748000005,-0.0078125,0.99853515625,-0.017822265625,2.29644775390625,-0.8544921875,0.51116943359375
3.332938506000005,-0.0078125,0.99853515625,-0.018310546875,2.28118896484375,-0.8544921875,0.48065185546875
3.342720524000015,-0.00830078125,0.998291015625,-0.01806640625,2.3040771484375,-0.84686279296875,0.46539306640625
3.35248538999997,-0.00830078125,0.998291015625,-0.018310546875,2.288818359375,-0.8544921875,0.48065185546875
3.362220879000006,-0.00830078125,0.998046875,-0.01806640625,2.288818359375,-0.8544921875,0.48065185546875
3.3730451970000104,-0.009033203125,0.998046875,-0.01806640625,2.288818359375,-0.87738037109375,0.46539306640625
3.3827734529999134,-0.00830078125,0.998046875,-0.017822265625,2.29644775390625,-0.86212158203125,0.48828125
3.392501197999991,-0.008056640625,0.998291015625,-0.0185546875,2.28118896484375,-0.8544921875,0.48828125
3.4022476630000256,-0.008056640625,0.998291015625,-0.01806640625,2.288818359375,-0.83160400390625,0.46539306640625
3.413094796999985,-0.007568359375,0.99853515625,-0.017822265625,2.2735595703125,-0.8392333984375,0.5035400390625
3.422870350999915,-0.008544921875,0.99853515625,-0.017822265625,2.25067138671875,-0.86212158203125,0.518798828125
3.4329090479999422,-0.008544921875,0.998046875,-0.018310546875,2.288818359375,-0.87738037109375,0.51116943359375
3.4428667829999995,-0.0078125,0.997802734375,-0.01806640625,2.3193359375,-0.86212158203125,0.4730224609375
3.4526388489999817,-0.0078125,0.997802734375,-0.018310546875,2.26593017578125,-0.86212158203125,0.46539306640625
3.46238636999999,-0.008056640625,0.998291015625,-0.01806640625,2.28118896484375,-0.885009765625,0.48828125
3.4721512999999504,-0.00830078125,0.99755859375,-0.018310546875,2.26593017578125,-0.8697509765625,0.48065185546875
3.4829842899999903,-0.008056640625,0.997802734375,-0.01806640625,2.2735595703125,-0.86212158203125,0.46539306640625
3.492728738999972,-0.007568359375,0.998046875,-0.0185546875,2.288818359375,-0.87738037109375,0.4730224609375
3.502518532999943,-0.00830078125,0.99853515625,-0.018798828125,2.31170654296875,-0.86212158203125,0.48065185546875
3.512260453999943,-0.00830078125,0.998291015625,-0.018310546875,2.28118896484375,-0.86212158203125,0.49591064453125
3.5220118159999174,-0.008544921875,0.998291015625,-0.017578125,2.3193359375,-0.86212158203125,0.457763671875
3.5328705659999287,-0.008056640625,0.997314453125,-0.01806640625,2.3193359375,-0.86212158203125,0.48828125
3.542671944999938,-0.00830078125,0.997802734375,-0.0185546875,2.29644775390625,-0.8697509765625,0.51116943359375
3.5524256100000002,-0.00830078125,0.997802734375,-0.01806640625,2.29644775390625,-0.86212158203125,0.45013427734375
3.5622035960000176,-0.00830078125,0.998291015625,-0.01806640625,2.29644775390625,-0.8697509765625,0.457763671875
3.573122507999983,-0.00830078125,0.998291015625,-0.018310546875,2.28118896484375,-0.8544921875,0.4730224609375
3.5829011339999397,-0.00830078125,0.998046875,-0.017822265625,2.288818359375,-0.8544921875,0.5035400390625
3.5926476319999665,-0.00830078125,0.99853515625,-0.017578125,2.28118896484375,-0.86212158203125,0.48828125
3.602497843999913,-0.008056640625,0.998291015625,-0.017822265625,2.26593017578125,-0.86212158203125,0.4730224609375
3.6122649489999503,-0.008056640625,0.99853515625,-0.018310546875,2.3193359375,-0.87738037109375,0.4730224609375
3.6220186470000044,-0.0078125,0.99853515625,-0.018798828125,2.31170654296875,-0.84686279296875,0.4730224609375
3.6328917339999407,-0.008056640625,0.998291015625,-0.018310546875,2.29644775390625,-0.84686279296875,0.4730224609375
3.642630742999927,-0.00830078125,0.9990234375,-0.018310546875,2.288818359375,-0.86212158203125,0.48828125
3.652390647999937,-0.009033203125,0.99853515625,-0.017578125,2.3193359375,-0.8544921875,0.457763671875
3.662158169999998,-0.00830078125,0.998779296875,-0.01806640625,2.29644775390625,-0.8544921875,0.49591064453125
3.6730351289999135,-0.008056640625,0.998779296875,-0.017822265625,2.3040771484375,-0.87738037109375,0.49591064453125
3.682783545999996,-0.00830078125,0.99853515625,-0.018798828125,2.3193359375,-0.8697509765625,0.457763671875
3.6925343639999255,-0.0078125,0.997314453125,-0.01806640625,2.3193359375,-0.86212158203125,0.49591064453125
3.7022742049999806,-0.008544921875,0.997314453125,-0.01806640625,2.288818359375,-0.8392333984375,0.46539306640625
3.7120549109999956,-0.008056640625,0.99853515625,-0.01806640625,2.31170654296875,-0.8392333984375,0.457763671875
3.7231282909999663,-0.007568359375,0.998046875,-0.0185546875,2.288818359375,-0.8544921875,0.46539306640625
3.7329161330000034,-0.008544921875,0.998291015625,-0.018310546875,2.288818359375,-0.8697509765625,0.49591064453125
3.7427551769999354,-0.0078125,0.998779296875,-0.01806640625,2.3040771484375,-0.87738037109375,0.48065185546875
3.7526006849999476,-0.00830078125,0.998046875,-0.018310546875,2.25830078125,-0.8544921875,0.48828125
3.762394894999943,-0.00830078125,0.998046875,-0.018310546875,2.29644775390625,-0.8697509765625,0.48065185546875
3.77216827299992,-0.008056640625,0.99853515625,-0.018798828125,2.2735595703125,-0.8697509765625,0.46539306640625
3.7829819019999604,-0.00830078125,0.998291015625,-0.01806640625,2.28118896484375,-0.86212158203125,0.46539306640625
3.7931433869999864,-0.008544921875,0.998779296875,-0.018310546875,2.288818359375,-0.8544921875,0.48065185546875
3.802226217999987,-0.008056640625,0.99853515625,-0.018310546875,2.288818359375,-0.8544921875,0.48828125
3.812118350999981,-0.00830078125,0.997802734375,-0.01806640625,2.29644775390625,-0.86212158203125,0.48065185546875
3.8229339649999474,-0.008056640625,0.998779296875,-0.017822265625,2.29644775390625,-0.8544921875,0.5035400390625
3.83269790199995,-0.0078125,0.99853515625,-0.0185546875,2.31170654296875,-0.8544921875,0.457763671875
3.842424494999932,-0.0087890625,0.998046875,-0.017578125,2.3193359375,-0.8697509765625,0.5035400390625
3.8521484639999244,-0.008056640625,0.99853515625,-0.017822265625,2.288818359375,-0.8697509765625,0.48828125
3.862990669999931,-0.00830078125,0.998779296875,-0.018798828125,2.2735595703125,-0.8544921875,0.4730224609375
3.87274155099999,-0.00830078125,0.998046875,-0.018310546875,2.29644775390625,-0.84686279296875,0.46539306640625
3.8825134889999617,-0.008056640625,0.998046875,-0.018310546875,2.3040771484375,-0.8392333984375,0.49591064453125
3.8922414899999467,-0.008544921875,0.997802734375,-0.018310546875,2.26593017578125,-0.86212158203125,0.49591064453125
3.9030680469999197,-0.008544921875,0.997802734375,-0.01806640625,2.2735595703125,-0.86212158203125,0.49591064453125
3.912795695999989,-0.008056640625,0.998046875,-0.01806640625,2.29644775390625,-0.86212158203125,0.48065185546875
3.9225967549999723,-0.0078125,0.998291015625,-0.017578125,2.288818359375,-0.86212158203125,0.48828125
3.9323807249999163,-0.008544921875,0.9990234375,-0.01806640625,2.25830078125,-0.87738037109375,0.5035400390625
3.9421366939999416,-0.0087890625,0.998291015625,-0.017822265625,2.3040771484375,-0.8544921875,0.48828125
3.952961011999946,-0.00830078125,0.99853515625,-0.018310546875,2.3040771484375,-0.83160400390625,0.48065185546875
3.9626845650000178,-0.008544921875,0.99853515625,-0.018310546875,2.32696533203125,-0.8697509765625,0.54168701171875
3.972411125000008,-0.008544921875,0.998046875,-0.0185546875,2.31170654296875,-0.87738037109375,0.51116943359375
3.982133013999942,-0.00830078125,0.99853515625,-0.017822265625,2.28118896484375,-0.86212158203125,0.48065185546875
3.9929438909999817,-0.008056640625,0.998291015625,-0.01806640625,2.29644775390625,-0.8392333984375,0.4730224609375
4.0029859799999485,-0.008544921875,0.998046875,-0.018310546875,2.29644775390625,-0.86212158203125,0.48065185546875
4.012872608999942,-0.00830078125,0.998046875,-0.0185546875,2.3040771484375,-0.8544921875,0.4730224609375
4.022676899999965,-0.008056640625,0.998046875,-0.018798828125,2.3040771484375,-0.86212158203125,0.49591064453125
4.03248247099998,-0.008544921875,0.998046875,-0.018798828125,2.28118896484375,-0.84686279296875,0.5035400390625
4.042325705999929,-0.008544921875,0.998046875,-0.0185546875,2.3040771484375,-0.86212158203125,0.49591064453125
4.052086508000002,-0.008544921875,0.998046875,-0.018310546875,2.288818359375,-0.8544921875,0.48828125
4.063039085000014,-0.00830078125,0.997314453125,-0.018798828125,2.2735595703125,-0.8392333984375,0.48065185546875
4.0728327509999644,-0.0078125,0.997802734375,-0.01806640625,2.3040771484375,-0.86212158203125,0.48828125
4.082585872999971,-0.00830078125,0.99853515625,-0.017578125,2.32696533203125,-0.8697509765625,0.48065185546875
4.092381682999985,-0.0078125,0.998046875,-0.017822265625,2.28118896484375,-0.885009765625,0.46539306640625
4.102146069000014,-0.008056640625,0.997802734375,-0.01806640625,2.2735595703125,-0.8544921875,0.4730224609375
4.11296830699996,-0.008056640625,0.997802734375,-0.018310546875,2.288818359375,-0.86212158203125,0.49591064453125
4.122700178999935,-0.008056640625,0.998046875,-0.0185546875,2.3040771484375,-0.86212158203125,0.4730224609375
4.132495382000002,-0.00830078125,0.998291015625,-0.018310546875,2.29644775390625,-0.8544921875,0.4730224609375
4.142233078999993,-0.008544921875,0.998046875,-0.01806640625,2.29644775390625,-0.84686279296875,0.4730224609375
4.153064692999919,-0.008544921875,0.998291015625,-0.018310546875,2.3040771484375,-0.86212158203125,0.48065185546875
4.162798805999955,-0.0078125,0.998046875,-0.01806640625,2.288818359375,-0.8697509765625,0.48828125
4.172534870999925,-0.008056640625,0.99853515625,-0.0185546875,2.288818359375,-0.87738037109375,0.457763671875
4.182266518999995,-0.008056640625,0.998291015625,-0.017578125,2.28118896484375,-0.8544921875,0.4730224609375
4.192029624999918,-0.0078125,0.998291015625,-0.01806640625,2.32696533203125,-0.8392333984375,0.49591064453125
4.202883799000006,-0.0078125,0.99755859375,-0.018310546875,2.29644775390625,-0.8392333984375,0.48828125
4.212631992999945,-0.009033203125,0.99853515625,-0.0185546875,2.28118896484375,-0.8392333984375,0.48065185546875
4.222389337999971,-0.0078125,0.998046875,-0.01806640625,2.2735595703125,-0.8697509765625,0.4730224609375
4.232174396000005,-0.008544921875,0.99755859375,-0.017578125,2.29644775390625,-0.86212158203125,0.48065185546875
4.2430100419999235,-0.00830078125,0.998779296875,-0.017578125,2.288818359375,-0.8392333984375,0.46539306640625
4.25276716399992,-0.00830078125,0.998779296875,-0.017578125,2.288818359375,-0.86212158203125,0.4730224609375
4.262529244999996,-0.00830078125,0.998779296875,-0.017578125,2.28118896484375,-0.8697509765625,0.4730224609375
4.272278078999989,-0.0078125,0.997802734375,-0.0185546875,2.288818359375,-0.86212158203125,0.4730224609375
4.283134269000016,-0.00830078125,0.997802734375,-0.018310546875,2.2735595703125,-0.86212158203125,0.48828125
4.29289548700001,-0.00830078125,0.998046875,-0.0185546875,2.3040771484375,-0.87738037109375,0.4730224609375
4.302626367000016,-0.008544921875,0.99853515625,-0.018310546875,2.29644775390625,-0.84686279296875,0.4730224609375
4.312388639000005,-0.009033203125,0.998291015625,-0.018310546875,2.29644775390625,-0.823974609375,0.457763671875
4.322153823999997,-0.008544921875,0.998291015625,-0.01806640625,2.3040771484375,-0.84686279296875,0.48065185546875
4.332981980999989,-0.008544921875,0.997802734375,-0.018310546875,2.28118896484375,-0.8697509765625,0.4730224609375
4.34271942099997,-0.0078125,0.998291015625,-0.017822265625,2.288818359375,-0.8697509765625,0.49591064453125
4.352452316999916,-0.0078125,0.998046875,-0.017822265625,2.288818359375,-0.8697509765625,0.5035400390625
4.362190845999976,-0.0078125,0.997802734375,-0.018310546875,2.288818359375,-0.8697509765625,0.49591064453125
4.37302076200001,-0.00830078125,0.997802734375,-0.0185546875,2.29644775390625,-0.86212158203125,0.49591064453125
4.382867261000001,-0.008056640625,0.997314453125,-0.018310546875,2.29644775390625,-0.8392333984375,0.46539306640625
4.392703679999954,-0.00830078125,0.997802734375,-0.01806640625,2.28118896484375,-0.86212158203125,0.46539306640625
4.4024497289999545,-0.008544921875,0.997802734375,-0.017822265625,2.288818359375,-0.885009765625,0.49591064453125
4.412209888999996,-0.00830078125,0.998291015625,-0.017822265625,2.25830078125,-0.8544921875,0.48828125
4.423042781999925,-0.008544921875,0.99853515625,-0.0185546875,2.288818359375,-0.86212158203125,0.5035400390625
4.43278924699996,-0.00830078125,0.998291015625,-0.017822265625,2.3193359375,-0.8697509765625,0.49591064453125
4.442550399999959,-0.007568359375,0.99755859375,-0.018310546875,2.29644775390625,-0.8544921875,0.48828125
4.4524987889999466,-0.008544921875,0.99853515625,-0.018310546875,2.288818359375,-0.8697509765625,0.5035400390625
4.462255941999956,-0.008056640625,0.99853515625,-0.01806640625,2.32696533203125,-0.86212158203125,0.48065185546875
4.473088258999951,-0.00830078125,0.999267578125,-0.01806640625,2.2735595703125,-0.8392333984375,0.5035400390625
4.482814243000007,-0.0087890625,0.997802734375,-0.017333984375,2.2735595703125,-0.8392333984375,0.5035400390625
4.492545282999913,-0.008544921875,0.998291015625,-0.018310546875,2.2735595703125,-0.84686279296875,0.5035400390625
4.502279074999933,-0.00830078125,0.998046875,-0.0185546875,2.28118896484375,-0.8544921875,0.5035400390625
4.512081285000022,-0.00830078125,0.99853515625,-0.017822265625,2.25830078125,-0.8697509765625,0.5035400390625
4.522912098000006,-0.007568359375,0.998046875,-0.017822265625,2.26593017578125,-0.83160400390625,0.49591064453125
4.532648578000021,-0.007568359375,0.998046875,-0.018798828125,2.29644775390625,-0.8697509765625,0.4730224609375
4.542400481999948,-0.0078125,0.99853515625,-0.018798828125,2.28118896484375,-0.86212158203125,0.48065185546875
4.552160194999942,-0.0078125,0.998046875,-0.01806640625,2.26593017578125,-0.86212158203125,0.4730224609375
4.56298240000001,-0.0078125,0.998046875,-0.01806640625,2.28118896484375,-0.86212158203125,0.48828125
4.57272019200002,-0.00830078125,0.998046875,-0.0185546875,2.32696533203125,-0.8697509765625,0.48828125
4.582474048999984,-0.008056640625,0.998291015625,-0.018310546875,2.3040771484375,-0.87738037109375,0.4730224609375
4.592209313000012,-0.008056640625,0.99853515625,-0.01806640625,2.31170654296875,-0.885009765625,0.48065185546875
4.60303644499993,-0.00830078125,0.99853515625,-0.017822265625,2.28118896484375,-0.8544921875,0.49591064453125
4.61277634999999,-0.008544921875,0.998779296875,-0.018310546875,2.2735595703125,-0.84686279296875,0.49591064453125
4.6225346859999945,-0.008056640625,0.9990234375,-0.0185546875,2.288818359375,-0.83160400390625,0.49591064453125
4.632266333999951,-0.00830078125,0.997802734375,-0.018310546875,2.288818359375,-0.8697509765625,0.48065185546875
4.643086202999939,-0.0087890625,0.998291015625,-0.0185546875,2.31170654296875,-0.86212158203125,0.49591064453125
